participant_code,task,block,trial_index,trial_type,valence,image,stim_dur_s,isi_s,response_key,rt_s,accuracy,device,n_channels,sampling_rate_hz,reference,montage_description,roi_n100,roi_p300,roi_lpp
A003,oddball,oddball,1,standard,neutral_task,C:\Users\ionut\OneDrive\Desktop\licenta\Experiment COD\stimuli\oddball\standard_checkerboard.jpg,1.0,2.0,,,1,Unicorn Hybrid Black,8,250,L/R mastoids,"Fz,C3,Cz,C4,Pz,PO7,Oz,PO8","PO7,Oz,PO8",Pz,Pz
A003,oddball,oddball,2,standard,neutral_task,C:\Users\ionut\OneDrive\Desktop\licenta\Experiment COD\stimuli\oddball\standard_checkerboard.jpg,1.0,2.0,,,1,Unicorn Hybrid Black,8,250,L/R mastoids,"Fz,C3,Cz,C4,Pz,PO7,Oz,PO8","PO7,Oz,PO8",Pz,Pz
A003,oddball,oddball,3,standard,neutral_task,C:\Users\ionut\OneDrive\Desktop\licenta\Experiment COD\stimuli\oddball\standard_checkerboard.jpg,1.0,2.0,,,1,Unicorn Hybrid Black,8,250,L/R mastoids,"Fz,C3,Cz,C4,Pz,PO7,Oz,PO8","PO7,Oz,PO8",Pz,Pz
A003,oddball,oddball,4,standard,neutral_task,C:\Users\ionut\OneDrive\Desktop\licenta\Experiment COD\stimuli\oddball\standard_checkerboard.jpg,1.0,2.0,,,1,Unicorn Hybrid Black,8,250,L/R mastoids,"Fz,C3,Cz,C4,Pz,PO7,Oz,PO8","PO7,Oz,PO8",Pz,Pz
A003,oddball,oddball,5,standard,neutral_task,C:\Users\ionut\OneDrive\Desktop\licenta\Experiment COD\stimuli\oddball\standard_checkerboard.jpg,1.0,2.0,,,1,Unicorn Hybrid Black,8,250,L/R mastoids,"Fz,C3,Cz,C4,Pz,PO7,Oz,PO8","PO7,Oz,PO8",Pz,Pz
A003,oddball,oddball,6,standard,neutral_task,C:\Users\ionut\OneDrive\Desktop\licenta\Experiment COD\stimuli\oddball\standard_checkerboard.jpg,1.0,2.0,,,1,Unicorn Hybrid Black,8,250,L/R mastoids,"Fz,C3,Cz,C4,Pz,PO7,Oz,PO8","PO7,Oz,PO8",Pz,Pz
A003,oddball,oddball,7,standard,neutral_task,C:\Users\ionut\OneDrive\Desktop\licenta\Experiment COD\stimuli\oddball\standard_checkerboard.jpg,1.0,2.0,,,1,Unicorn Hybrid Black,8,250,L/R mastoids,"Fz,C3,Cz,C4,Pz,PO7,Oz,PO8","PO7,Oz,PO8",Pz,Pz
A003,oddball,oddball,8,standard,neutral_task,C:\Users\ionut\OneDrive\Desktop\licenta\Experiment COD\stimuli\oddball\standard_checkerboard.jpg,1.0,2.0,,,1,Unicorn Hybrid Black,8,250,L/R mastoids,"Fz,C3,Cz,C4,Pz,PO7,Oz,PO8","PO7,Oz,PO8",Pz,Pz
A003,oddball,oddball,9,standard,neutral_task,C:\Users\ionut\OneDrive\Desktop\licenta\Experiment COD\stimuli\oddball\standard_checkerboard.jpg,1.0,2.0,,,1,Unicorn Hybrid Black,8,250,L/R mastoids,"Fz,C3,Cz,C4,Pz,PO7,Oz,PO8","PO7,Oz,PO8",Pz,Pz
A003,oddball,oddball,10,standard,neutral_task,C:\Users\ionut\OneDrive\Desktop\licenta\Experiment COD\stimuli\oddball\standard_checkerboard.jpg,1.0,2.0,,,1,Unicorn Hybrid Black,8,250,L/R mastoids,"Fz,C3,Cz,C4,Pz,PO7,Oz,PO8","PO7,Oz,PO8",Pz,Pz
A003,oddball,oddball,11,standard,neutral_task,C:\Users\ionut\OneDrive\Desktop\licenta\Experiment COD\stimuli\oddball\standard_checkerboard.jpg,1.0,2.0,,,1,Unicorn Hybrid Black,8,250,L/R mastoids,"Fz,C3,Cz,C4,Pz,PO7,Oz,PO8","PO7,Oz,PO8",Pz,Pz
A003,oddball,oddball,12,target,neutral_task,C:\Users\ionut\OneDrive\Desktop\licenta\Experiment COD\stimuli\oddball\target_checkerboard.jpg,1.0,2.0,space,0.4619691999978386,1,Unicorn Hybrid Black,8,250,L/R mastoids,"Fz,C3,Cz,C4,Pz,PO7,Oz,PO8","PO7,Oz,PO8",Pz,Pz
A003,oddball,oddball,13,standard,neutral_task,C:\Users\ionut\OneDrive\Desktop\licenta\Experiment COD\stimuli\oddball\standard_checkerboard.jpg,1.0,2.0,,,1,Unicorn Hybrid Black,8,250,L/R mastoids,"Fz,C3,Cz,C4,Pz,PO7,Oz,PO8","PO7,Oz,PO8",Pz,Pz
A003,oddball,oddball,14,standard,neutral_task,C:\Users\ionut\OneDrive\Desktop\licenta\Experiment COD\stimuli\oddball\standard_checkerboard.jpg,1.0,2.0,,,1,Unicorn Hybrid Black,8,250,L/R mastoids,"Fz,C3,Cz,C4,Pz,PO7,Oz,PO8","PO7,Oz,PO8",Pz,Pz
A003,oddball,oddball,15,standard,neutral_task,C:\Users\ionut\OneDrive\Desktop\licenta\Experiment COD\stimuli\oddball\standard_checkerboard.jpg,1.0,2.0,,,1,Unicorn Hybrid Black,8,250,L/R mastoids,"Fz,C3,Cz,C4,Pz,PO7,Oz,PO8","PO7,Oz,PO8",Pz,Pz
A003,oddball,oddball,16,target,neutral_task,C:\Users\ionut\OneDrive\Desktop\licenta\Experiment COD\stimuli\oddball\target_checkerboard.jpg,1.0,2.0,space,0.46170480002183467,1,Unicorn Hybrid Black,8,250,L/R mastoids,"Fz,C3,Cz,C4,Pz,PO7,Oz,PO8","PO7,Oz,PO8",Pz,Pz
A003,oddball,oddball,17,standard,neutral_task,C:\Users\ionut\OneDrive\Desktop\licenta\Experiment COD\stimuli\oddball\standard_checkerboard.jpg,1.0,2.0,,,1,Unicorn Hybrid Black,8,250,L/R mastoids,"Fz,C3,Cz,C4,Pz,PO7,Oz,PO8","PO7,Oz,PO8",Pz,Pz
A003,oddball,oddball,18,standard,neutral_task,C:\Users\ionut\OneDrive\Desktop\licenta\Experiment COD\stimuli\oddball\standard_checkerboard.jpg,1.0,2.0,,,1,Unicorn Hybrid Black,8,250,L/R mastoids,"Fz,C3,Cz,C4,Pz,PO7,Oz,PO8","PO7,Oz,PO8",Pz,Pz
A003,oddball,oddball,19,standard,neutral_task,C:\Users\ionut\OneDrive\Desktop\licenta\Experiment COD\stimuli\oddball\standard_checkerboard.jpg,1.0,2.0,,,1,Unicorn Hybrid Black,8,250,L/R mastoids,"Fz,C3,Cz,C4,Pz,PO7,Oz,PO8","PO7,Oz,PO8",Pz,Pz
A003,oddball,oddball,20,standard,neutral_task,C:\Users\ionut\OneDrive\Desktop\licenta\Experiment COD\stimuli\oddball\standard_checkerboard.jpg,1.0,2.0,,,1,Unicorn Hybrid Black,8,250,L/R mastoids,"Fz,C3,Cz,C4,Pz,PO7,Oz,PO8","PO7,Oz,PO8",Pz,Pz
A003,oddball,oddball,21,standard,neutral_task,C:\Users\ionut\OneDrive\Desktop\licenta\Experiment COD\stimuli\oddball\standard_checkerboard.jpg,1.0,2.0,,,1,Unicorn Hybrid Black,8,250,L/R mastoids,"Fz,C3,Cz,C4,Pz,PO7,Oz,PO8","PO7,Oz,PO8",Pz,Pz
A003,oddball,oddball,22,standard,neutral_task,C:\Users\ionut\OneDrive\Desktop\licenta\Experiment COD\stimuli\oddball\standard_checkerboard.jpg,1.0,2.0,,,1,Unicorn Hybrid Black,8,250,L/R mastoids,"Fz,C3,Cz,C4,Pz,PO7,Oz,PO8","PO7,Oz,PO8",Pz,Pz
A003,oddball,oddball,23,standard,neutral_task,C:\Users\ionut\OneDrive\Desktop\licenta\Experiment COD\stimuli\oddball\standard_checkerboard.jpg,1.0,2.0,,,1,Unicorn Hybrid Black,8,250,L/R mastoids,"Fz,C3,Cz,C4,Pz,PO7,Oz,PO8","PO7,Oz,PO8",Pz,Pz
A003,oddball,oddball,24,standard,neutral_task,C:\Users\ionut\OneDrive\Desktop\licenta\Experiment COD\stimuli\oddball\standard_checkerboard.jpg,1.0,2.0,,,1,Unicorn Hybrid Black,8,250,L/R mastoids,"Fz,C3,Cz,C4,Pz,PO7,Oz,PO8","PO7,Oz,PO8",Pz,Pz
A003,oddball,oddball,25,standard,neutral_task,C:\Users\ionut\OneDrive\Desktop\licenta\Experiment COD\stimuli\oddball\standard_checkerboard.jpg,1.0,2.0,,,1,Unicorn Hybrid Black,8,250,L/R mastoids,"Fz,C3,Cz,C4,Pz,PO7,Oz,PO8","PO7,Oz,PO8",Pz,Pz
A003,oddball,oddball,26,target,neutral_task,C:\Users\ionut\OneDrive\Desktop\licenta\Experiment COD\stimuli\oddball\target_checkerboard.jpg,1.0,2.0,space,0.4784897999779787,1,Unicorn Hybrid Black,8,250,L/R mastoids,"Fz,C3,Cz,C4,Pz,PO7,Oz,PO8","PO7,Oz,PO8",Pz,Pz
A003,oddball,oddball,27,standard,neutral_task,C:\Users\ionut\OneDrive\Desktop\licenta\Experiment COD\stimuli\oddball\standard_checkerboard.jpg,1.0,2.0,,,1,Unicorn Hybrid Black,8,250,L/R mastoids,"Fz,C3,Cz,C4,Pz,PO7,Oz,PO8","PO7,Oz,PO8",Pz,Pz
A003,oddball,oddball,28,target,neutral_task,C:\Users\ionut\OneDrive\Desktop\licenta\Experiment COD\stimuli\oddball\target_checkerboard.jpg,1.0,2.0,space,0.46142340000369586,1,Unicorn Hybrid Black,8,250,L/R mastoids,"Fz,C3,Cz,C4,Pz,PO7,Oz,PO8","PO7,Oz,PO8",Pz,Pz
A003,oddball,oddball,29,standard,neutral_task,C:\Users\ionut\OneDrive\Desktop\licenta\Experiment COD\stimuli\oddball\standard_checkerboard.jpg,1.0,2.0,,,1,Unicorn Hybrid Black,8,250,L/R mastoids,"Fz,C3,Cz,C4,Pz,PO7,Oz,PO8","PO7,Oz,PO8",Pz,Pz
A003,oddball,oddball,30,standard,neutral_task,C:\Users\ionut\OneDrive\Desktop\licenta\Experiment COD\stimuli\oddball\standard_checkerboard.jpg,1.0,2.0,,,1,Unicorn Hybrid Black,8,250,L/R mastoids,"Fz,C3,Cz,C4,Pz,PO7,Oz,PO8","PO7,Oz,PO8",Pz,Pz
A003,oddball,oddball,31,target,neutral_task,C:\Users\ionut\OneDrive\Desktop\licenta\Experiment COD\stimuli\oddball\target_checkerboard.jpg,1.0,2.0,space,0.4441450000158511,1,Unicorn Hybrid Black,8,250,L/R mastoids,"Fz,C3,Cz,C4,Pz,PO7,Oz,PO8","PO7,Oz,PO8",Pz,Pz
A003,oddball,oddball,32,standard,neutral_task,C:\Users\ionut\OneDrive\Desktop\licenta\Experiment COD\stimuli\oddball\standard_checkerboard.jpg,1.0,2.0,,,1,Unicorn Hybrid Black,8,250,L/R mastoids,"Fz,C3,Cz,C4,Pz,PO7,Oz,PO8","PO7,Oz,PO8",Pz,Pz
A003,oddball,oddball,33,standard,neutral_task,C:\Users\ionut\OneDrive\Desktop\licenta\Experiment COD\stimuli\oddball\standard_checkerboard.jpg,1.0,2.0,,,1,Unicorn Hybrid Black,8,250,L/R mastoids,"Fz,C3,Cz,C4,Pz,PO7,Oz,PO8","PO7,Oz,PO8",Pz,Pz
A003,oddball,oddball,34,standard,neutral_task,C:\Users\ionut\OneDrive\Desktop\licenta\Experiment COD\stimuli\oddball\standard_checkerboard.jpg,1.0,2.0,,,1,Unicorn Hybrid Black,8,250,L/R mastoids,"Fz,C3,Cz,C4,Pz,PO7,Oz,PO8","PO7,Oz,PO8",Pz,Pz
A003,oddball,oddball,35,standard,neutral_task,C:\Users\ionut\OneDrive\Desktop\licenta\Experiment COD\stimuli\oddball\standard_checkerboard.jpg,1.0,2.0,,,1,Unicorn Hybrid Black,8,250,L/R mastoids,"Fz,C3,Cz,C4,Pz,PO7,Oz,PO8","PO7,Oz,PO8",Pz,Pz
A003,oddball,oddball,36,target,neutral_task,C:\Users\ionut\OneDrive\Desktop\licenta\Experiment COD\stimuli\oddball\target_checkerboard.jpg,1.0,2.0,space,0.5618210000102408,1,Unicorn Hybrid Black,8,250,L/R mastoids,"Fz,C3,Cz,C4,Pz,PO7,Oz,PO8","PO7,Oz,PO8",Pz,Pz
A003,oddball,oddball,37,standard,neutral_task,C:\Users\ionut\OneDrive\Desktop\licenta\Experiment COD\stimuli\oddball\standard_checkerboard.jpg,1.0,2.0,,,1,Unicorn Hybrid Black,8,250,L/R mastoids,"Fz,C3,Cz,C4,Pz,PO7,Oz,PO8","PO7,Oz,PO8",Pz,Pz
A003,oddball,oddball,38,standard,neutral_task,C:\Users\ionut\OneDrive\Desktop\licenta\Experiment COD\stimuli\oddball\standard_checkerboard.jpg,1.0,2.0,,,1,Unicorn Hybrid Black,8,250,L/R mastoids,"Fz,C3,Cz,C4,Pz,PO7,Oz,PO8","PO7,Oz,PO8",Pz,Pz
A003,oddball,oddball,39,target,neutral_task,C:\Users\ionut\OneDrive\Desktop\licenta\Experiment COD\stimuli\oddball\target_checkerboard.jpg,1.0,2.0,space,0.37762099999235943,1,Unicorn Hybrid Black,8,250,L/R mastoids,"Fz,C3,Cz,C4,Pz,PO7,Oz,PO8","PO7,Oz,PO8",Pz,Pz
A003,oddball,oddball,40,standard,neutral_task,C:\Users\ionut\OneDrive\Desktop\licenta\Experiment COD\stimuli\oddball\standard_checkerboard.jpg,1.0,2.0,,,1,Unicorn Hybrid Black,8,250,L/R mastoids,"Fz,C3,Cz,C4,Pz,PO7,Oz,PO8","PO7,Oz,PO8",Pz,Pz
A003,oddball,oddball,41,standard,neutral_task,C:\Users\ionut\OneDrive\Desktop\licenta\Experiment COD\stimuli\oddball\standard_checkerboard.jpg,1.0,2.0,,,1,Unicorn Hybrid Black,8,250,L/R mastoids,"Fz,C3,Cz,C4,Pz,PO7,Oz,PO8","PO7,Oz,PO8",Pz,Pz
A003,oddball,oddball,42,standard,neutral_task,C:\Users\ionut\OneDrive\Desktop\licenta\Experiment COD\stimuli\oddball\standard_checkerboard.jpg,1.0,2.0,,,1,Unicorn Hybrid Black,8,250,L/R mastoids,"Fz,C3,Cz,C4,Pz,PO7,Oz,PO8","PO7,Oz,PO8",Pz,Pz
A003,oddball,oddball,43,standard,neutral_task,C:\Users\ionut\OneDrive\Desktop\licenta\Experiment COD\stimuli\oddball\standard_checkerboard.jpg,1.0,2.0,,,1,Unicorn Hybrid Black,8,250,L/R mastoids,"Fz,C3,Cz,C4,Pz,PO7,Oz,PO8","PO7,Oz,PO8",Pz,Pz
A003,oddball,oddball,44,target,neutral_task,C:\Users\ionut\OneDrive\Desktop\licenta\Experiment COD\stimuli\oddball\target_checkerboard.jpg,1.0,2.0,space,0.4438040000095498,1,Unicorn Hybrid Black,8,250,L/R mastoids,"Fz,C3,Cz,C4,Pz,PO7,Oz,PO8","PO7,Oz,PO8",Pz,Pz
A003,oddball,oddball,45,standard,neutral_task,C:\Users\ionut\OneDrive\Desktop\licenta\Experiment COD\stimuli\oddball\standard_checkerboard.jpg,1.0,2.0,,,1,Unicorn Hybrid Black,8,250,L/R mastoids,"Fz,C3,Cz,C4,Pz,PO7,Oz,PO8","PO7,Oz,PO8",Pz,Pz
A003,oddball,oddball,46,standard,neutral_task,C:\Users\ionut\OneDrive\Desktop\licenta\Experiment COD\stimuli\oddball\standard_checkerboard.jpg,1.0,2.0,,,1,Unicorn Hybrid Black,8,250,L/R mastoids,"Fz,C3,Cz,C4,Pz,PO7,Oz,PO8","PO7,Oz,PO8",Pz,Pz
A003,oddball,oddball,47,standard,neutral_task,C:\Users\ionut\OneDrive\Desktop\licenta\Experiment COD\stimuli\oddball\standard_checkerboard.jpg,1.0,2.0,,,1,Unicorn Hybrid Black,8,250,L/R mastoids,"Fz,C3,Cz,C4,Pz,PO7,Oz,PO8","PO7,Oz,PO8",Pz,Pz
A003,oddball,oddball,48,standard,neutral_task,C:\Users\ionut\OneDrive\Desktop\licenta\Experiment COD\stimuli\oddball\standard_checkerboard.jpg,1.0,2.0,,,1,Unicorn Hybrid Black,8,250,L/R mastoids,"Fz,C3,Cz,C4,Pz,PO7,Oz,PO8","PO7,Oz,PO8",Pz,Pz
A003,oddball,oddball,49,standard,neutral_task,C:\Users\ionut\OneDrive\Desktop\licenta\Experiment COD\stimuli\oddball\standard_checkerboard.jpg,1.0,2.0,,,1,Unicorn Hybrid Black,8,250,L/R mastoids,"Fz,C3,Cz,C4,Pz,PO7,Oz,PO8","PO7,Oz,PO8",Pz,Pz
A003,oddball,oddball,50,standard,neutral_task,C:\Users\ionut\OneDrive\Desktop\licenta\Experiment COD\stimuli\oddball\standard_checkerboard.jpg,1.0,2.0,,,1,Unicorn Hybrid Black,8,250,L/R mastoids,"Fz,C3,Cz,C4,Pz,PO7,Oz,PO8","PO7,Oz,PO8",Pz,Pz
A003,oddball,oddball,51,standard,neutral_task,C:\Users\ionut\OneDrive\Desktop\licenta\Experiment COD\stimuli\oddball\standard_checkerboard.jpg,1.0,2.0,,,1,Unicorn Hybrid Black,8,250,L/R mastoids,"Fz,C3,Cz,C4,Pz,PO7,Oz,PO8","PO7,Oz,PO8",Pz,Pz
A003,oddball,oddball,52,standard,neutral_task,C:\Users\ionut\OneDrive\Desktop\licenta\Experiment COD\stimuli\oddball\standard_checkerboard.jpg,1.0,2.0,,,1,Unicorn Hybrid Black,8,250,L/R mastoids,"Fz,C3,Cz,C4,Pz,PO7,Oz,PO8","PO7,Oz,PO8",Pz,Pz
A003,oddball,oddball,53,standard,neutral_task,C:\Users\ionut\OneDrive\Desktop\licenta\Experiment COD\stimuli\oddball\standard_checkerboard.jpg,1.0,2.0,,,1,Unicorn Hybrid Black,8,250,L/R mastoids,"Fz,C3,Cz,C4,Pz,PO7,Oz,PO8","PO7,Oz,PO8",Pz,Pz
A003,oddball,oddball,54,standard,neutral_task,C:\Users\ionut\OneDrive\Desktop\licenta\Experiment COD\stimuli\oddball\standard_checkerboard.jpg,1.0,2.0,,,1,Unicorn Hybrid Black,8,250,L/R mastoids,"Fz,C3,Cz,C4,Pz,PO7,Oz,PO8","PO7,Oz,PO8",Pz,Pz
A003,oddball,oddball,55,standard,neutral_task,C:\Users\ionut\OneDrive\Desktop\licenta\Experiment COD\stimuli\oddball\standard_checkerboard.jpg,1.0,2.0,,,1,Unicorn Hybrid Black,8,250,L/R mastoids,"Fz,C3,Cz,C4,Pz,PO7,Oz,PO8","PO7,Oz,PO8",Pz,Pz
A003,oddball,oddball,56,standard,neutral_task,C:\Users\ionut\OneDrive\Desktop\licenta\Experiment COD\stimuli\oddball\standard_checkerboard.jpg,1.0,2.0,,,1,Unicorn Hybrid Black,8,250,L/R mastoids,"Fz,C3,Cz,C4,Pz,PO7,Oz,PO8","PO7,Oz,PO8",Pz,Pz
A003,oddball,oddball,57,standard,neutral_task,C:\Users\ionut\OneDrive\Desktop\licenta\Experiment COD\stimuli\oddball\standard_checkerboard.jpg,1.0,2.0,,,1,Unicorn Hybrid Black,8,250,L/R mastoids,"Fz,C3,Cz,C4,Pz,PO7,Oz,PO8","PO7,Oz,PO8",Pz,Pz
A003,oddball,oddball,58,standard,neutral_task,C:\Users\ionut\OneDrive\Desktop\licenta\Experiment COD\stimuli\oddball\standard_checkerboard.jpg,1.0,2.0,,,1,Unicorn Hybrid Black,8,250,L/R mastoids,"Fz,C3,Cz,C4,Pz,PO7,Oz,PO8","PO7,Oz,PO8",Pz,Pz
A003,oddball,oddball,59,standard,neutral_task,C:\Users\ionut\OneDrive\Desktop\licenta\Experiment COD\stimuli\oddball\standard_checkerboard.jpg,1.0,2.0,,,1,Unicorn Hybrid Black,8,250,L/R mastoids,"Fz,C3,Cz,C4,Pz,PO7,Oz,PO8","PO7,Oz,PO8",Pz,Pz
A003,oddball,oddball,60,standard,neutral_task,C:\Users\ionut\OneDrive\Desktop\licenta\Experiment COD\stimuli\oddball\standard_checkerboard.jpg,1.0,2.0,,,1,Unicorn Hybrid Black,8,250,L/R mastoids,"Fz,C3,Cz,C4,Pz,PO7,Oz,PO8","PO7,Oz,PO8",Pz,Pz
A003,oddball,oddball,61,standard,neutral_task,C:\Users\ionut\OneDrive\Desktop\licenta\Experiment COD\stimuli\oddball\standard_checkerboard.jpg,1.0,2.0,,,1,Unicorn Hybrid Black,8,250,L/R mastoids,"Fz,C3,Cz,C4,Pz,PO7,Oz,PO8","PO7,Oz,PO8",Pz,Pz
A003,oddball,oddball,62,target,neutral_task,C:\Users\ionut\OneDrive\Desktop\licenta\Experiment COD\stimuli\oddball\target_checkerboard.jpg,1.0,2.0,space,0.4614084000058938,1,Unicorn Hybrid Black,8,250,L/R mastoids,"Fz,C3,Cz,C4,Pz,PO7,Oz,PO8","PO7,Oz,PO8",Pz,Pz
A003,oddball,oddball,63,standard,neutral_task,C:\Users\ionut\OneDrive\Desktop\licenta\Experiment COD\stimuli\oddball\standard_checkerboard.jpg,1.0,2.0,,,1,Unicorn Hybrid Black,8,250,L/R mastoids,"Fz,C3,Cz,C4,Pz,PO7,Oz,PO8","PO7,Oz,PO8",Pz,Pz
A003,oddball,oddball,64,target,neutral_task,C:\Users\ionut\OneDrive\Desktop\licenta\Experiment COD\stimuli\oddball\target_checkerboard.jpg,1.0,2.0,space,0.5615490000054706,1,Unicorn Hybrid Black,8,250,L/R mastoids,"Fz,C3,Cz,C4,Pz,PO7,Oz,PO8","PO7,Oz,PO8",Pz,Pz
A003,oddball,oddball,65,standard,neutral_task,C:\Users\ionut\OneDrive\Desktop\licenta\Experiment COD\stimuli\oddball\standard_checkerboard.jpg,1.0,2.0,,,1,Unicorn Hybrid Black,8,250,L/R mastoids,"Fz,C3,Cz,C4,Pz,PO7,Oz,PO8","PO7,Oz,PO8",Pz,Pz
A003,oddball,oddball,66,standard,neutral_task,C:\Users\ionut\OneDrive\Desktop\licenta\Experiment COD\stimuli\oddball\standard_checkerboard.jpg,1.0,2.0,,,1,Unicorn Hybrid Black,8,250,L/R mastoids,"Fz,C3,Cz,C4,Pz,PO7,Oz,PO8","PO7,Oz,PO8",Pz,Pz
A003,oddball,oddball,67,standard,neutral_task,C:\Users\ionut\OneDrive\Desktop\licenta\Experiment COD\stimuli\oddball\standard_checkerboard.jpg,1.0,2.0,,,1,Unicorn Hybrid Black,8,250,L/R mastoids,"Fz,C3,Cz,C4,Pz,PO7,Oz,PO8","PO7,Oz,PO8",Pz,Pz
A003,oddball,oddball,68,standard,neutral_task,C:\Users\ionut\OneDrive\Desktop\licenta\Experiment COD\stimuli\oddball\standard_checkerboard.jpg,1.0,2.0,,,1,Unicorn Hybrid Black,8,250,L/R mastoids,"Fz,C3,Cz,C4,Pz,PO7,Oz,PO8","PO7,Oz,PO8",Pz,Pz
A003,oddball,oddball,69,target,neutral_task,C:\Users\ionut\OneDrive\Desktop\licenta\Experiment COD\stimuli\oddball\target_checkerboard.jpg,1.0,2.0,space,0.4606918999925256,1,Unicorn Hybrid Black,8,250,L/R mastoids,"Fz,C3,Cz,C4,Pz,PO7,Oz,PO8","PO7,Oz,PO8",Pz,Pz
A003,oddball,oddball,70,target,neutral_task,C:\Users\ionut\OneDrive\Desktop\licenta\Experiment COD\stimuli\oddball\target_checkerboard.jpg,1.0,2.0,space,0.576112100010505,1,Unicorn Hybrid Black,8,250,L/R mastoids,"Fz,C3,Cz,C4,Pz,PO7,Oz,PO8","PO7,Oz,PO8",Pz,Pz
A003,oddball,oddball,71,target,neutral_task,C:\Users\ionut\OneDrive\Desktop\licenta\Experiment COD\stimuli\oddball\target_checkerboard.jpg,1.0,2.0,space,0.4944508000044152,1,Unicorn Hybrid Black,8,250,L/R mastoids,"Fz,C3,Cz,C4,Pz,PO7,Oz,PO8","PO7,Oz,PO8",Pz,Pz
A003,oddball,oddball,72,standard,neutral_task,C:\Users\ionut\OneDrive\Desktop\licenta\Experiment COD\stimuli\oddball\standard_checkerboard.jpg,1.0,2.0,,,1,Unicorn Hybrid Black,8,250,L/R mastoids,"Fz,C3,Cz,C4,Pz,PO7,Oz,PO8","PO7,Oz,PO8",Pz,Pz
A003,oddball,oddball,73,standard,neutral_task,C:\Users\ionut\OneDrive\Desktop\licenta\Experiment COD\stimuli\oddball\standard_checkerboard.jpg,1.0,2.0,,,1,Unicorn Hybrid Black,8,250,L/R mastoids,"Fz,C3,Cz,C4,Pz,PO7,Oz,PO8","PO7,Oz,PO8",Pz,Pz
A003,oddball,oddball,74,standard,neutral_task,C:\Users\ionut\OneDrive\Desktop\licenta\Experiment COD\stimuli\oddball\standard_checkerboard.jpg,1.0,2.0,,,1,Unicorn Hybrid Black,8,250,L/R mastoids,"Fz,C3,Cz,C4,Pz,PO7,Oz,PO8","PO7,Oz,PO8",Pz,Pz
A003,oddball,oddball,75,standard,neutral_task,C:\Users\ionut\OneDrive\Desktop\licenta\Experiment COD\stimuli\oddball\standard_checkerboard.jpg,1.0,2.0,,,1,Unicorn Hybrid Black,8,250,L/R mastoids,"Fz,C3,Cz,C4,Pz,PO7,Oz,PO8","PO7,Oz,PO8",Pz,Pz
A003,oddball,oddball,76,standard,neutral_task,C:\Users\ionut\OneDrive\Desktop\licenta\Experiment COD\stimuli\oddball\standard_checkerboard.jpg,1.0,2.0,,,1,Unicorn Hybrid Black,8,250,L/R mastoids,"Fz,C3,Cz,C4,Pz,PO7,Oz,PO8","PO7,Oz,PO8",Pz,Pz
A003,oddball,oddball,77,target,neutral_task,C:\Users\ionut\OneDrive\Desktop\licenta\Experiment COD\stimuli\oddball\target_checkerboard.jpg,1.0,2.0,space,0.4945749999897089,1,Unicorn Hybrid Black,8,250,L/R mastoids,"Fz,C3,Cz,C4,Pz,PO7,Oz,PO8","PO7,Oz,PO8",Pz,Pz
A003,oddball,oddball,78,standard,neutral_task,C:\Users\ionut\OneDrive\Desktop\licenta\Experiment COD\stimuli\oddball\standard_checkerboard.jpg,1.0,2.0,,,1,Unicorn Hybrid Black,8,250,L/R mastoids,"Fz,C3,Cz,C4,Pz,PO7,Oz,PO8","PO7,Oz,PO8",Pz,Pz
A003,oddball,oddball,79,standard,neutral_task,C:\Users\ionut\OneDrive\Desktop\licenta\Experiment COD\stimuli\oddball\standard_checkerboard.jpg,1.0,2.0,,,1,Unicorn Hybrid Black,8,250,L/R mastoids,"Fz,C3,Cz,C4,Pz,PO7,Oz,PO8","PO7,Oz,PO8",Pz,Pz
A003,oddball,oddball,80,standard,neutral_task,C:\Users\ionut\OneDrive\Desktop\licenta\Experiment COD\stimuli\oddball\standard_checkerboard.jpg,1.0,2.0,,,1,Unicorn Hybrid Black,8,250,L/R mastoids,"Fz,C3,Cz,C4,Pz,PO7,Oz,PO8","PO7,Oz,PO8",Pz,Pz
A003,oddball,oddball,81,standard,neutral_task,C:\Users\ionut\OneDrive\Desktop\licenta\Experiment COD\stimuli\oddball\standard_checkerboard.jpg,1.0,2.0,,,1,Unicorn Hybrid Black,8,250,L/R mastoids,"Fz,C3,Cz,C4,Pz,PO7,Oz,PO8","PO7,Oz,PO8",Pz,Pz
A003,oddball,oddball,82,standard,neutral_task,C:\Users\ionut\OneDrive\Desktop\licenta\Experiment COD\stimuli\oddball\standard_checkerboard.jpg,1.0,2.0,,,1,Unicorn Hybrid Black,8,250,L/R mastoids,"Fz,C3,Cz,C4,Pz,PO7,Oz,PO8","PO7,Oz,PO8",Pz,Pz
A003,oddball,oddball,83,target,neutral_task,C:\Users\ionut\OneDrive\Desktop\licenta\Experiment COD\stimuli\oddball\target_checkerboard.jpg,1.0,2.0,space,0.4940896000189241,1,Unicorn Hybrid Black,8,250,L/R mastoids,"Fz,C3,Cz,C4,Pz,PO7,Oz,PO8","PO7,Oz,PO8",Pz,Pz
A003,oddball,oddball,84,target,neutral_task,C:\Users\ionut\OneDrive\Desktop\licenta\Experiment COD\stimuli\oddball\target_checkerboard.jpg,1.0,2.0,space,0.5269209999823943,1,Unicorn Hybrid Black,8,250,L/R mastoids,"Fz,C3,Cz,C4,Pz,PO7,Oz,PO8","PO7,Oz,PO8",Pz,Pz
A003,oddball,oddball,85,standard,neutral_task,C:\Users\ionut\OneDrive\Desktop\licenta\Experiment COD\stimuli\oddball\standard_checkerboard.jpg,1.0,2.0,,,1,Unicorn Hybrid Black,8,250,L/R mastoids,"Fz,C3,Cz,C4,Pz,PO7,Oz,PO8","PO7,Oz,PO8",Pz,Pz
A003,oddball,oddball,86,target,neutral_task,C:\Users\ionut\OneDrive\Desktop\licenta\Experiment COD\stimuli\oddball\target_checkerboard.jpg,1.0,2.0,space,0.47753279999597,1,Unicorn Hybrid Black,8,250,L/R mastoids,"Fz,C3,Cz,C4,Pz,PO7,Oz,PO8","PO7,Oz,PO8",Pz,Pz
A003,oddball,oddball,87,standard,neutral_task,C:\Users\ionut\OneDrive\Desktop\licenta\Experiment COD\stimuli\oddball\standard_checkerboard.jpg,1.0,2.0,,,1,Unicorn Hybrid Black,8,250,L/R mastoids,"Fz,C3,Cz,C4,Pz,PO7,Oz,PO8","PO7,Oz,PO8",Pz,Pz
A003,oddball,oddball,88,standard,neutral_task,C:\Users\ionut\OneDrive\Desktop\licenta\Experiment COD\stimuli\oddball\standard_checkerboard.jpg,1.0,2.0,,,1,Unicorn Hybrid Black,8,250,L/R mastoids,"Fz,C3,Cz,C4,Pz,PO7,Oz,PO8","PO7,Oz,PO8",Pz,Pz
A003,oddball,oddball,89,standard,neutral_task,C:\Users\ionut\OneDrive\Desktop\licenta\Experiment COD\stimuli\oddball\standard_checkerboard.jpg,1.0,2.0,,,1,Unicorn Hybrid Black,8,250,L/R mastoids,"Fz,C3,Cz,C4,Pz,PO7,Oz,PO8","PO7,Oz,PO8",Pz,Pz
A003,oddball,oddball,90,standard,neutral_task,C:\Users\ionut\OneDrive\Desktop\licenta\Experiment COD\stimuli\oddball\standard_checkerboard.jpg,1.0,2.0,,,1,Unicorn Hybrid Black,8,250,L/R mastoids,"Fz,C3,Cz,C4,Pz,PO7,Oz,PO8","PO7,Oz,PO8",Pz,Pz
A003,oddball,oddball,91,standard,neutral_task,C:\Users\ionut\OneDrive\Desktop\licenta\Experiment COD\stimuli\oddball\standard_checkerboard.jpg,1.0,2.0,,,1,Unicorn Hybrid Black,8,250,L/R mastoids,"Fz,C3,Cz,C4,Pz,PO7,Oz,PO8","PO7,Oz,PO8",Pz,Pz
A003,oddball,oddball,92,target,neutral_task,C:\Users\ionut\OneDrive\Desktop\licenta\Experiment COD\stimuli\oddball\target_checkerboard.jpg,1.0,2.0,space,0.47805120001430623,1,Unicorn Hybrid Black,8,250,L/R mastoids,"Fz,C3,Cz,C4,Pz,PO7,Oz,PO8","PO7,Oz,PO8",Pz,Pz
A003,oddball,oddball,93,standard,neutral_task,C:\Users\ionut\OneDrive\Desktop\licenta\Experiment COD\stimuli\oddball\standard_checkerboard.jpg,1.0,2.0,,,1,Unicorn Hybrid Black,8,250,L/R mastoids,"Fz,C3,Cz,C4,Pz,PO7,Oz,PO8","PO7,Oz,PO8",Pz,Pz
A003,oddball,oddball,94,standard,neutral_task,C:\Users\ionut\OneDrive\Desktop\licenta\Experiment COD\stimuli\oddball\standard_checkerboard.jpg,1.0,2.0,,,1,Unicorn Hybrid Black,8,250,L/R mastoids,"Fz,C3,Cz,C4,Pz,PO7,Oz,PO8","PO7,Oz,PO8",Pz,Pz
A003,oddball,oddball,95,standard,neutral_task,C:\Users\ionut\OneDrive\Desktop\licenta\Experiment COD\stimuli\oddball\standard_checkerboard.jpg,1.0,2.0,,,1,Unicorn Hybrid Black,8,250,L/R mastoids,"Fz,C3,Cz,C4,Pz,PO7,Oz,PO8","PO7,Oz,PO8",Pz,Pz
A003,oddball,oddball,96,standard,neutral_task,C:\Users\ionut\OneDrive\Desktop\licenta\Experiment COD\stimuli\oddball\standard_checkerboard.jpg,1.0,2.0,,,1,Unicorn Hybrid Black,8,250,L/R mastoids,"Fz,C3,Cz,C4,Pz,PO7,Oz,PO8","PO7,Oz,PO8",Pz,Pz
A003,oddball,oddball,97,standard,neutral_task,C:\Users\ionut\OneDrive\Desktop\licenta\Experiment COD\stimuli\oddball\standard_checkerboard.jpg,1.0,2.0,,,1,Unicorn Hybrid Black,8,250,L/R mastoids,"Fz,C3,Cz,C4,Pz,PO7,Oz,PO8","PO7,Oz,PO8",Pz,Pz
A003,oddball,oddball,98,standard,neutral_task,C:\Users\ionut\OneDrive\Desktop\licenta\Experiment COD\stimuli\oddball\standard_checkerboard.jpg,1.0,2.0,,,1,Unicorn Hybrid Black,8,250,L/R mastoids,"Fz,C3,Cz,C4,Pz,PO7,Oz,PO8","PO7,Oz,PO8",Pz,Pz
A003,oddball,oddball,99,standard,neutral_task,C:\Users\ionut\OneDrive\Desktop\licenta\Experiment COD\stimuli\oddball\standard_checkerboard.jpg,1.0,2.0,,,1,Unicorn Hybrid Black,8,250,L/R mastoids,"Fz,C3,Cz,C4,Pz,PO7,Oz,PO8","PO7,Oz,PO8",Pz,Pz
A003,oddball,oddball,100,standard,neutral_task,C:\Users\ionut\OneDrive\Desktop\licenta\Experiment COD\stimuli\oddball\standard_checkerboard.jpg,1.0,2.0,,,1,Unicorn Hybrid Black,8,250,L/R mastoids,"Fz,C3,Cz,C4,Pz,PO7,Oz,PO8","PO7,Oz,PO8",Pz,Pz
A003,oddball,oddball,101,standard,neutral_task,C:\Users\ionut\OneDrive\Desktop\licenta\Experiment COD\stimuli\oddball\standard_checkerboard.jpg,1.0,2.0,,,1,Unicorn Hybrid Black,8,250,L/R mastoids,"Fz,C3,Cz,C4,Pz,PO7,Oz,PO8","PO7,Oz,PO8",Pz,Pz
A003,oddball,oddball,102,standard,neutral_task,C:\Users\ionut\OneDrive\Desktop\licenta\Experiment COD\stimuli\oddball\standard_checkerboard.jpg,1.0,2.0,,,1,Unicorn Hybrid Black,8,250,L/R mastoids,"Fz,C3,Cz,C4,Pz,PO7,Oz,PO8","PO7,Oz,PO8",Pz,Pz
A003,oddball,oddball,103,standard,neutral_task,C:\Users\ionut\OneDrive\Desktop\licenta\Experiment COD\stimuli\oddball\standard_checkerboard.jpg,1.0,2.0,,,1,Unicorn Hybrid Black,8,250,L/R mastoids,"Fz,C3,Cz,C4,Pz,PO7,Oz,PO8","PO7,Oz,PO8",Pz,Pz
A003,oddball,oddball,104,target,neutral_task,C:\Users\ionut\OneDrive\Desktop\licenta\Experiment COD\stimuli\oddball\target_checkerboard.jpg,1.0,2.0,space,0.4782967999926768,1,Unicorn Hybrid Black,8,250,L/R mastoids,"Fz,C3,Cz,C4,Pz,PO7,Oz,PO8","PO7,Oz,PO8",Pz,Pz
A003,oddball,oddball,105,standard,neutral_task,C:\Users\ionut\OneDrive\Desktop\licenta\Experiment COD\stimuli\oddball\standard_checkerboard.jpg,1.0,2.0,,,1,Unicorn Hybrid Black,8,250,L/R mastoids,"Fz,C3,Cz,C4,Pz,PO7,Oz,PO8","PO7,Oz,PO8",Pz,Pz
A003,oddball,oddball,106,standard,neutral_task,C:\Users\ionut\OneDrive\Desktop\licenta\Experiment COD\stimuli\oddball\standard_checkerboard.jpg,1.0,2.0,,,1,Unicorn Hybrid Black,8,250,L/R mastoids,"Fz,C3,Cz,C4,Pz,PO7,Oz,PO8","PO7,Oz,PO8",Pz,Pz
A003,oddball,oddball,107,target,neutral_task,C:\Users\ionut\OneDrive\Desktop\licenta\Experiment COD\stimuli\oddball\target_checkerboard.jpg,1.0,2.0,space,0.4120100000000093,1,Unicorn Hybrid Black,8,250,L/R mastoids,"Fz,C3,Cz,C4,Pz,PO7,Oz,PO8","PO7,Oz,PO8",Pz,Pz
A003,oddball,oddball,108,standard,neutral_task,C:\Users\ionut\OneDrive\Desktop\licenta\Experiment COD\stimuli\oddball\standard_checkerboard.jpg,1.0,2.0,,,1,Unicorn Hybrid Black,8,250,L/R mastoids,"Fz,C3,Cz,C4,Pz,PO7,Oz,PO8","PO7,Oz,PO8",Pz,Pz
A003,oddball,oddball,109,target,neutral_task,C:\Users\ionut\OneDrive\Desktop\licenta\Experiment COD\stimuli\oddball\target_checkerboard.jpg,1.0,2.0,space,0.40985329999239184,1,Unicorn Hybrid Black,8,250,L/R mastoids,"Fz,C3,Cz,C4,Pz,PO7,Oz,PO8","PO7,Oz,PO8",Pz,Pz
A003,oddball,oddball,110,standard,neutral_task,C:\Users\ionut\OneDrive\Desktop\licenta\Experiment COD\stimuli\oddball\standard_checkerboard.jpg,1.0,2.0,,,1,Unicorn Hybrid Black,8,250,L/R mastoids,"Fz,C3,Cz,C4,Pz,PO7,Oz,PO8","PO7,Oz,PO8",Pz,Pz
A003,oddball,oddball,111,standard,neutral_task,C:\Users\ionut\OneDrive\Desktop\licenta\Experiment COD\stimuli\oddball\standard_checkerboard.jpg,1.0,2.0,,,1,Unicorn Hybrid Black,8,250,L/R mastoids,"Fz,C3,Cz,C4,Pz,PO7,Oz,PO8","PO7,Oz,PO8",Pz,Pz
A003,oddball,oddball,112,standard,neutral_task,C:\Users\ionut\OneDrive\Desktop\licenta\Experiment COD\stimuli\oddball\standard_checkerboard.jpg,1.0,2.0,,,1,Unicorn Hybrid Black,8,250,L/R mastoids,"Fz,C3,Cz,C4,Pz,PO7,Oz,PO8","PO7,Oz,PO8",Pz,Pz
A003,oddball,oddball,113,standard,neutral_task,C:\Users\ionut\OneDrive\Desktop\licenta\Experiment COD\stimuli\oddball\standard_checkerboard.jpg,1.0,2.0,,,1,Unicorn Hybrid Black,8,250,L/R mastoids,"Fz,C3,Cz,C4,Pz,PO7,Oz,PO8","PO7,Oz,PO8",Pz,Pz
A003,oddball,oddball,114,standard,neutral_task,C:\Users\ionut\OneDrive\Desktop\licenta\Experiment COD\stimuli\oddball\standard_checkerboard.jpg,1.0,2.0,,,1,Unicorn Hybrid Black,8,250,L/R mastoids,"Fz,C3,Cz,C4,Pz,PO7,Oz,PO8","PO7,Oz,PO8",Pz,Pz
A003,oddball,oddball,115,standard,neutral_task,C:\Users\ionut\OneDrive\Desktop\licenta\Experiment COD\stimuli\oddball\standard_checkerboard.jpg,1.0,2.0,,,1,Unicorn Hybrid Black,8,250,L/R mastoids,"Fz,C3,Cz,C4,Pz,PO7,Oz,PO8","PO7,Oz,PO8",Pz,Pz
A003,oddball,oddball,116,standard,neutral_task,C:\Users\ionut\OneDrive\Desktop\licenta\Experiment COD\stimuli\oddball\standard_checkerboard.jpg,1.0,2.0,,,1,Unicorn Hybrid Black,8,250,L/R mastoids,"Fz,C3,Cz,C4,Pz,PO7,Oz,PO8","PO7,Oz,PO8",Pz,Pz
A003,oddball,oddball,117,standard,neutral_task,C:\Users\ionut\OneDrive\Desktop\licenta\Experiment COD\stimuli\oddball\standard_checkerboard.jpg,1.0,2.0,,,1,Unicorn Hybrid Black,8,250,L/R mastoids,"Fz,C3,Cz,C4,Pz,PO7,Oz,PO8","PO7,Oz,PO8",Pz,Pz
A003,oddball,oddball,118,standard,neutral_task,C:\Users\ionut\OneDrive\Desktop\licenta\Experiment COD\stimuli\oddball\standard_checkerboard.jpg,1.0,2.0,,,1,Unicorn Hybrid Black,8,250,L/R mastoids,"Fz,C3,Cz,C4,Pz,PO7,Oz,PO8","PO7,Oz,PO8",Pz,Pz
A003,oddball,oddball,119,standard,neutral_task,C:\Users\ionut\OneDrive\Desktop\licenta\Experiment COD\stimuli\oddball\standard_checkerboard.jpg,1.0,2.0,,,1,Unicorn Hybrid Black,8,250,L/R mastoids,"Fz,C3,Cz,C4,Pz,PO7,Oz,PO8","PO7,Oz,PO8",Pz,Pz
A003,oddball,oddball,120,standard,neutral_task,C:\Users\ionut\OneDrive\Desktop\licenta\Experiment COD\stimuli\oddball\standard_checkerboard.jpg,1.0,2.0,,,1,Unicorn Hybrid Black,8,250,L/R mastoids,"Fz,C3,Cz,C4,Pz,PO7,Oz,PO8","PO7,Oz,PO8",Pz,Pz
A003,oddball,oddball,121,standard,neutral_task,C:\Users\ionut\OneDrive\Desktop\licenta\Experiment COD\stimuli\oddball\standard_checkerboard.jpg,1.0,2.0,,,1,Unicorn Hybrid Black,8,250,L/R mastoids,"Fz,C3,Cz,C4,Pz,PO7,Oz,PO8","PO7,Oz,PO8",Pz,Pz
A003,oddball,oddball,122,standard,neutral_task,C:\Users\ionut\OneDrive\Desktop\licenta\Experiment COD\stimuli\oddball\standard_checkerboard.jpg,1.0,2.0,,,1,Unicorn Hybrid Black,8,250,L/R mastoids,"Fz,C3,Cz,C4,Pz,PO7,Oz,PO8","PO7,Oz,PO8",Pz,Pz
A003,oddball,oddball,123,standard,neutral_task,C:\Users\ionut\OneDrive\Desktop\licenta\Experiment COD\stimuli\oddball\standard_checkerboard.jpg,1.0,2.0,,,1,Unicorn Hybrid Black,8,250,L/R mastoids,"Fz,C3,Cz,C4,Pz,PO7,Oz,PO8","PO7,Oz,PO8",Pz,Pz
A003,oddball,oddball,124,standard,neutral_task,C:\Users\ionut\OneDrive\Desktop\licenta\Experiment COD\stimuli\oddball\standard_checkerboard.jpg,1.0,2.0,,,1,Unicorn Hybrid Black,8,250,L/R mastoids,"Fz,C3,Cz,C4,Pz,PO7,Oz,PO8","PO7,Oz,PO8",Pz,Pz
A003,oddball,oddball,125,target,neutral_task,C:\Users\ionut\OneDrive\Desktop\licenta\Experiment COD\stimuli\oddball\target_checkerboard.jpg,1.0,2.0,space,0.5624748000118416,1,Unicorn Hybrid Black,8,250,L/R mastoids,"Fz,C3,Cz,C4,Pz,PO7,Oz,PO8","PO7,Oz,PO8",Pz,Pz
A003,oddball,oddball,126,standard,neutral_task,C:\Users\ionut\OneDrive\Desktop\licenta\Experiment COD\stimuli\oddball\standard_checkerboard.jpg,1.0,2.0,,,1,Unicorn Hybrid Black,8,250,L/R mastoids,"Fz,C3,Cz,C4,Pz,PO7,Oz,PO8","PO7,Oz,PO8",Pz,Pz
A003,oddball,oddball,127,standard,neutral_task,C:\Users\ionut\OneDrive\Desktop\licenta\Experiment COD\stimuli\oddball\standard_checkerboard.jpg,1.0,2.0,,,1,Unicorn Hybrid Black,8,250,L/R mastoids,"Fz,C3,Cz,C4,Pz,PO7,Oz,PO8","PO7,Oz,PO8",Pz,Pz
A003,oddball,oddball,128,standard,neutral_task,C:\Users\ionut\OneDrive\Desktop\licenta\Experiment COD\stimuli\oddball\standard_checkerboard.jpg,1.0,2.0,,,1,Unicorn Hybrid Black,8,250,L/R mastoids,"Fz,C3,Cz,C4,Pz,PO7,Oz,PO8","PO7,Oz,PO8",Pz,Pz
A003,oddball,oddball,129,standard,neutral_task,C:\Users\ionut\OneDrive\Desktop\licenta\Experiment COD\stimuli\oddball\standard_checkerboard.jpg,1.0,2.0,,,1,Unicorn Hybrid Black,8,250,L/R mastoids,"Fz,C3,Cz,C4,Pz,PO7,Oz,PO8","PO7,Oz,PO8",Pz,Pz
A003,oddball,oddball,130,standard,neutral_task,C:\Users\ionut\OneDrive\Desktop\licenta\Experiment COD\stimuli\oddball\standard_checkerboard.jpg,1.0,2.0,,,1,Unicorn Hybrid Black,8,250,L/R mastoids,"Fz,C3,Cz,C4,Pz,PO7,Oz,PO8","PO7,Oz,PO8",Pz,Pz
A003,oddball,oddball,131,target,neutral_task,C:\Users\ionut\OneDrive\Desktop\licenta\Experiment COD\stimuli\oddball\target_checkerboard.jpg,1.0,2.0,space,0.4773226999968756,1,Unicorn Hybrid Black,8,250,L/R mastoids,"Fz,C3,Cz,C4,Pz,PO7,Oz,PO8","PO7,Oz,PO8",Pz,Pz
A003,oddball,oddball,132,target,neutral_task,C:\Users\ionut\OneDrive\Desktop\licenta\Experiment COD\stimuli\oddball\target_checkerboard.jpg,1.0,2.0,space,0.4446507999964524,1,Unicorn Hybrid Black,8,250,L/R mastoids,"Fz,C3,Cz,C4,Pz,PO7,Oz,PO8","PO7,Oz,PO8",Pz,Pz
A003,oddball,oddball,133,target,neutral_task,C:\Users\ionut\OneDrive\Desktop\licenta\Experiment COD\stimuli\oddball\target_checkerboard.jpg,1.0,2.0,space,0.5776318999996874,1,Unicorn Hybrid Black,8,250,L/R mastoids,"Fz,C3,Cz,C4,Pz,PO7,Oz,PO8","PO7,Oz,PO8",Pz,Pz
A003,oddball,oddball,134,standard,neutral_task,C:\Users\ionut\OneDrive\Desktop\licenta\Experiment COD\stimuli\oddball\standard_checkerboard.jpg,1.0,2.0,,,1,Unicorn Hybrid Black,8,250,L/R mastoids,"Fz,C3,Cz,C4,Pz,PO7,Oz,PO8","PO7,Oz,PO8",Pz,Pz
A003,oddball,oddball,135,standard,neutral_task,C:\Users\ionut\OneDrive\Desktop\licenta\Experiment COD\stimuli\oddball\standard_checkerboard.jpg,1.0,2.0,,,1,Unicorn Hybrid Black,8,250,L/R mastoids,"Fz,C3,Cz,C4,Pz,PO7,Oz,PO8","PO7,Oz,PO8",Pz,Pz
A003,oddball,oddball,136,standard,neutral_task,C:\Users\ionut\OneDrive\Desktop\licenta\Experiment COD\stimuli\oddball\standard_checkerboard.jpg,1.0,2.0,,,1,Unicorn Hybrid Black,8,250,L/R mastoids,"Fz,C3,Cz,C4,Pz,PO7,Oz,PO8","PO7,Oz,PO8",Pz,Pz
A003,oddball,oddball,137,standard,neutral_task,C:\Users\ionut\OneDrive\Desktop\licenta\Experiment COD\stimuli\oddball\standard_checkerboard.jpg,1.0,2.0,,,1,Unicorn Hybrid Black,8,250,L/R mastoids,"Fz,C3,Cz,C4,Pz,PO7,Oz,PO8","PO7,Oz,PO8",Pz,Pz
A003,oddball,oddball,138,standard,neutral_task,C:\Users\ionut\OneDrive\Desktop\licenta\Experiment COD\stimuli\oddball\standard_checkerboard.jpg,1.0,2.0,,,1,Unicorn Hybrid Black,8,250,L/R mastoids,"Fz,C3,Cz,C4,Pz,PO7,Oz,PO8","PO7,Oz,PO8",Pz,Pz
A003,oddball,oddball,139,target,neutral_task,C:\Users\ionut\OneDrive\Desktop\licenta\Experiment COD\stimuli\oddball\target_checkerboard.jpg,1.0,2.0,space,0.4951143000216689,1,Unicorn Hybrid Black,8,250,L/R mastoids,"Fz,C3,Cz,C4,Pz,PO7,Oz,PO8","PO7,Oz,PO8",Pz,Pz
A003,oddball,oddball,140,standard,neutral_task,C:\Users\ionut\OneDrive\Desktop\licenta\Experiment COD\stimuli\oddball\standard_checkerboard.jpg,1.0,2.0,,,1,Unicorn Hybrid Black,8,250,L/R mastoids,"Fz,C3,Cz,C4,Pz,PO7,Oz,PO8","PO7,Oz,PO8",Pz,Pz
A003,oddball,oddball,141,standard,neutral_task,C:\Users\ionut\OneDrive\Desktop\licenta\Experiment COD\stimuli\oddball\standard_checkerboard.jpg,1.0,2.0,,,1,Unicorn Hybrid Black,8,250,L/R mastoids,"Fz,C3,Cz,C4,Pz,PO7,Oz,PO8","PO7,Oz,PO8",Pz,Pz
A003,oddball,oddball,142,standard,neutral_task,C:\Users\ionut\OneDrive\Desktop\licenta\Experiment COD\stimuli\oddball\standard_checkerboard.jpg,1.0,2.0,,,1,Unicorn Hybrid Black,8,250,L/R mastoids,"Fz,C3,Cz,C4,Pz,PO7,Oz,PO8","PO7,Oz,PO8",Pz,Pz
A003,oddball,oddball,143,target,neutral_task,C:\Users\ionut\OneDrive\Desktop\licenta\Experiment COD\stimuli\oddball\target_checkerboard.jpg,1.0,2.0,space,0.4626228999986779,1,Unicorn Hybrid Black,8,250,L/R mastoids,"Fz,C3,Cz,C4,Pz,PO7,Oz,PO8","PO7,Oz,PO8",Pz,Pz
A003,oddball,oddball,144,standard,neutral_task,C:\Users\ionut\OneDrive\Desktop\licenta\Experiment COD\stimuli\oddball\standard_checkerboard.jpg,1.0,2.0,,,1,Unicorn Hybrid Black,8,250,L/R mastoids,"Fz,C3,Cz,C4,Pz,PO7,Oz,PO8","PO7,Oz,PO8",Pz,Pz
A003,oddball,oddball,145,standard,neutral_task,C:\Users\ionut\OneDrive\Desktop\licenta\Experiment COD\stimuli\oddball\standard_checkerboard.jpg,1.0,2.0,,,1,Unicorn Hybrid Black,8,250,L/R mastoids,"Fz,C3,Cz,C4,Pz,PO7,Oz,PO8","PO7,Oz,PO8",Pz,Pz
A003,oddball,oddball,146,standard,neutral_task,C:\Users\ionut\OneDrive\Desktop\licenta\Experiment COD\stimuli\oddball\standard_checkerboard.jpg,1.0,2.0,,,1,Unicorn Hybrid Black,8,250,L/R mastoids,"Fz,C3,Cz,C4,Pz,PO7,Oz,PO8","PO7,Oz,PO8",Pz,Pz
A003,oddball,oddball,147,target,neutral_task,C:\Users\ionut\OneDrive\Desktop\licenta\Experiment COD\stimuli\oddball\target_checkerboard.jpg,1.0,2.0,space,0.47927029998390935,1,Unicorn Hybrid Black,8,250,L/R mastoids,"Fz,C3,Cz,C4,Pz,PO7,Oz,PO8","PO7,Oz,PO8",Pz,Pz
A003,oddball,oddball,148,standard,neutral_task,C:\Users\ionut\OneDrive\Desktop\licenta\Experiment COD\stimuli\oddball\standard_checkerboard.jpg,1.0,2.0,,,1,Unicorn Hybrid Black,8,250,L/R mastoids,"Fz,C3,Cz,C4,Pz,PO7,Oz,PO8","PO7,Oz,PO8",Pz,Pz
A003,oddball,oddball,149,target,neutral_task,C:\Users\ionut\OneDrive\Desktop\licenta\Experiment COD\stimuli\oddball\target_checkerboard.jpg,1.0,2.0,space,0.4787003000092227,1,Unicorn Hybrid Black,8,250,L/R mastoids,"Fz,C3,Cz,C4,Pz,PO7,Oz,PO8","PO7,Oz,PO8",Pz,Pz
A003,oddball,oddball,150,standard,neutral_task,C:\Users\ionut\OneDrive\Desktop\licenta\Experiment COD\stimuli\oddball\standard_checkerboard.jpg,1.0,2.0,,,1,Unicorn Hybrid Black,8,250,L/R mastoids,"Fz,C3,Cz,C4,Pz,PO7,Oz,PO8","PO7,Oz,PO8",Pz,Pz
A003,oddball,oddball,151,standard,neutral_task,C:\Users\ionut\OneDrive\Desktop\licenta\Experiment COD\stimuli\oddball\standard_checkerboard.jpg,1.0,2.0,,,1,Unicorn Hybrid Black,8,250,L/R mastoids,"Fz,C3,Cz,C4,Pz,PO7,Oz,PO8","PO7,Oz,PO8",Pz,Pz
A003,oddball,oddball,152,standard,neutral_task,C:\Users\ionut\OneDrive\Desktop\licenta\Experiment COD\stimuli\oddball\standard_checkerboard.jpg,1.0,2.0,,,1,Unicorn Hybrid Black,8,250,L/R mastoids,"Fz,C3,Cz,C4,Pz,PO7,Oz,PO8","PO7,Oz,PO8",Pz,Pz
A003,oddball,oddball,153,standard,neutral_task,C:\Users\ionut\OneDrive\Desktop\licenta\Experiment COD\stimuli\oddball\standard_checkerboard.jpg,1.0,2.0,,,1,Unicorn Hybrid Black,8,250,L/R mastoids,"Fz,C3,Cz,C4,Pz,PO7,Oz,PO8","PO7,Oz,PO8",Pz,Pz
A003,oddball,oddball,154,target,neutral_task,C:\Users\ionut\OneDrive\Desktop\licenta\Experiment COD\stimuli\oddball\target_checkerboard.jpg,1.0,2.0,space,0.4793377000023611,1,Unicorn Hybrid Black,8,250,L/R mastoids,"Fz,C3,Cz,C4,Pz,PO7,Oz,PO8","PO7,Oz,PO8",Pz,Pz
A003,oddball,oddball,155,standard,neutral_task,C:\Users\ionut\OneDrive\Desktop\licenta\Experiment COD\stimuli\oddball\standard_checkerboard.jpg,1.0,2.0,,,1,Unicorn Hybrid Black,8,250,L/R mastoids,"Fz,C3,Cz,C4,Pz,PO7,Oz,PO8","PO7,Oz,PO8",Pz,Pz
A003,oddball,oddball,156,standard,neutral_task,C:\Users\ionut\OneDrive\Desktop\licenta\Experiment COD\stimuli\oddball\standard_checkerboard.jpg,1.0,2.0,,,1,Unicorn Hybrid Black,8,250,L/R mastoids,"Fz,C3,Cz,C4,Pz,PO7,Oz,PO8","PO7,Oz,PO8",Pz,Pz
A003,oddball,oddball,157,standard,neutral_task,C:\Users\ionut\OneDrive\Desktop\licenta\Experiment COD\stimuli\oddball\standard_checkerboard.jpg,1.0,2.0,,,1,Unicorn Hybrid Black,8,250,L/R mastoids,"Fz,C3,Cz,C4,Pz,PO7,Oz,PO8","PO7,Oz,PO8",Pz,Pz
A003,oddball,oddball,158,standard,neutral_task,C:\Users\ionut\OneDrive\Desktop\licenta\Experiment COD\stimuli\oddball\standard_checkerboard.jpg,1.0,2.0,,,1,Unicorn Hybrid Black,8,250,L/R mastoids,"Fz,C3,Cz,C4,Pz,PO7,Oz,PO8","PO7,Oz,PO8",Pz,Pz
A003,oddball,oddball,159,standard,neutral_task,C:\Users\ionut\OneDrive\Desktop\licenta\Experiment COD\stimuli\oddball\standard_checkerboard.jpg,1.0,2.0,,,1,Unicorn Hybrid Black,8,250,L/R mastoids,"Fz,C3,Cz,C4,Pz,PO7,Oz,PO8","PO7,Oz,PO8",Pz,Pz
A003,oddball,oddball,160,standard,neutral_task,C:\Users\ionut\OneDrive\Desktop\licenta\Experiment COD\stimuli\oddball\standard_checkerboard.jpg,1.0,2.0,,,1,Unicorn Hybrid Black,8,250,L/R mastoids,"Fz,C3,Cz,C4,Pz,PO7,Oz,PO8","PO7,Oz,PO8",Pz,Pz
A003,oddball,oddball,161,standard,neutral_task,C:\Users\ionut\OneDrive\Desktop\licenta\Experiment COD\stimuli\oddball\standard_checkerboard.jpg,1.0,2.0,,,1,Unicorn Hybrid Black,8,250,L/R mastoids,"Fz,C3,Cz,C4,Pz,PO7,Oz,PO8","PO7,Oz,PO8",Pz,Pz
A003,oddball,oddball,162,standard,neutral_task,C:\Users\ionut\OneDrive\Desktop\licenta\Experiment COD\stimuli\oddball\standard_checkerboard.jpg,1.0,2.0,,,1,Unicorn Hybrid Black,8,250,L/R mastoids,"Fz,C3,Cz,C4,Pz,PO7,Oz,PO8","PO7,Oz,PO8",Pz,Pz
A003,oddball,oddball,163,standard,neutral_task,C:\Users\ionut\OneDrive\Desktop\licenta\Experiment COD\stimuli\oddball\standard_checkerboard.jpg,1.0,2.0,,,1,Unicorn Hybrid Black,8,250,L/R mastoids,"Fz,C3,Cz,C4,Pz,PO7,Oz,PO8","PO7,Oz,PO8",Pz,Pz
A003,oddball,oddball,164,standard,neutral_task,C:\Users\ionut\OneDrive\Desktop\licenta\Experiment COD\stimuli\oddball\standard_checkerboard.jpg,1.0,2.0,,,1,Unicorn Hybrid Black,8,250,L/R mastoids,"Fz,C3,Cz,C4,Pz,PO7,Oz,PO8","PO7,Oz,PO8",Pz,Pz
A003,oddball,oddball,165,standard,neutral_task,C:\Users\ionut\OneDrive\Desktop\licenta\Experiment COD\stimuli\oddball\standard_checkerboard.jpg,1.0,2.0,,,1,Unicorn Hybrid Black,8,250,L/R mastoids,"Fz,C3,Cz,C4,Pz,PO7,Oz,PO8","PO7,Oz,PO8",Pz,Pz
A003,oddball,oddball,166,standard,neutral_task,C:\Users\ionut\OneDrive\Desktop\licenta\Experiment COD\stimuli\oddball\standard_checkerboard.jpg,1.0,2.0,,,1,Unicorn Hybrid Black,8,250,L/R mastoids,"Fz,C3,Cz,C4,Pz,PO7,Oz,PO8","PO7,Oz,PO8",Pz,Pz
A003,oddball,oddball,167,standard,neutral_task,C:\Users\ionut\OneDrive\Desktop\licenta\Experiment COD\stimuli\oddball\standard_checkerboard.jpg,1.0,2.0,,,1,Unicorn Hybrid Black,8,250,L/R mastoids,"Fz,C3,Cz,C4,Pz,PO7,Oz,PO8","PO7,Oz,PO8",Pz,Pz
A003,oddball,oddball,168,target,neutral_task,C:\Users\ionut\OneDrive\Desktop\licenta\Experiment COD\stimuli\oddball\target_checkerboard.jpg,1.0,2.0,space,0.4951390999776777,1,Unicorn Hybrid Black,8,250,L/R mastoids,"Fz,C3,Cz,C4,Pz,PO7,Oz,PO8","PO7,Oz,PO8",Pz,Pz
A003,oddball,oddball,169,standard,neutral_task,C:\Users\ionut\OneDrive\Desktop\licenta\Experiment COD\stimuli\oddball\standard_checkerboard.jpg,1.0,2.0,,,1,Unicorn Hybrid Black,8,250,L/R mastoids,"Fz,C3,Cz,C4,Pz,PO7,Oz,PO8","PO7,Oz,PO8",Pz,Pz
A003,oddball,oddball,170,standard,neutral_task,C:\Users\ionut\OneDrive\Desktop\licenta\Experiment COD\stimuli\oddball\standard_checkerboard.jpg,1.0,2.0,,,1,Unicorn Hybrid Black,8,250,L/R mastoids,"Fz,C3,Cz,C4,Pz,PO7,Oz,PO8","PO7,Oz,PO8",Pz,Pz
A003,oddball,oddball,171,standard,neutral_task,C:\Users\ionut\OneDrive\Desktop\licenta\Experiment COD\stimuli\oddball\standard_checkerboard.jpg,1.0,2.0,,,1,Unicorn Hybrid Black,8,250,L/R mastoids,"Fz,C3,Cz,C4,Pz,PO7,Oz,PO8","PO7,Oz,PO8",Pz,Pz
A003,oddball,oddball,172,standard,neutral_task,C:\Users\ionut\OneDrive\Desktop\licenta\Experiment COD\stimuli\oddball\standard_checkerboard.jpg,1.0,2.0,,,1,Unicorn Hybrid Black,8,250,L/R mastoids,"Fz,C3,Cz,C4,Pz,PO7,Oz,PO8","PO7,Oz,PO8",Pz,Pz
A003,oddball,oddball,173,standard,neutral_task,C:\Users\ionut\OneDrive\Desktop\licenta\Experiment COD\stimuli\oddball\standard_checkerboard.jpg,1.0,2.0,,,1,Unicorn Hybrid Black,8,250,L/R mastoids,"Fz,C3,Cz,C4,Pz,PO7,Oz,PO8","PO7,Oz,PO8",Pz,Pz
A003,oddball,oddball,174,standard,neutral_task,C:\Users\ionut\OneDrive\Desktop\licenta\Experiment COD\stimuli\oddball\standard_checkerboard.jpg,1.0,2.0,,,1,Unicorn Hybrid Black,8,250,L/R mastoids,"Fz,C3,Cz,C4,Pz,PO7,Oz,PO8","PO7,Oz,PO8",Pz,Pz
A003,oddball,oddball,175,target,neutral_task,C:\Users\ionut\OneDrive\Desktop\licenta\Experiment COD\stimuli\oddball\target_checkerboard.jpg,1.0,2.0,space,0.4792015999846626,1,Unicorn Hybrid Black,8,250,L/R mastoids,"Fz,C3,Cz,C4,Pz,PO7,Oz,PO8","PO7,Oz,PO8",Pz,Pz
A003,oddball,oddball,176,standard,neutral_task,C:\Users\ionut\OneDrive\Desktop\licenta\Experiment COD\stimuli\oddball\standard_checkerboard.jpg,1.0,2.0,,,1,Unicorn Hybrid Black,8,250,L/R mastoids,"Fz,C3,Cz,C4,Pz,PO7,Oz,PO8","PO7,Oz,PO8",Pz,Pz
A003,oddball,oddball,177,target,neutral_task,C:\Users\ionut\OneDrive\Desktop\licenta\Experiment COD\stimuli\oddball\target_checkerboard.jpg,1.0,2.0,space,0.44532640001852997,1,Unicorn Hybrid Black,8,250,L/R mastoids,"Fz,C3,Cz,C4,Pz,PO7,Oz,PO8","PO7,Oz,PO8",Pz,Pz
A003,oddball,oddball,178,standard,neutral_task,C:\Users\ionut\OneDrive\Desktop\licenta\Experiment COD\stimuli\oddball\standard_checkerboard.jpg,1.0,2.0,,,1,Unicorn Hybrid Black,8,250,L/R mastoids,"Fz,C3,Cz,C4,Pz,PO7,Oz,PO8","PO7,Oz,PO8",Pz,Pz
A003,oddball,oddball,179,standard,neutral_task,C:\Users\ionut\OneDrive\Desktop\licenta\Experiment COD\stimuli\oddball\standard_checkerboard.jpg,1.0,2.0,,,1,Unicorn Hybrid Black,8,250,L/R mastoids,"Fz,C3,Cz,C4,Pz,PO7,Oz,PO8","PO7,Oz,PO8",Pz,Pz
A003,oddball,oddball,180,standard,neutral_task,C:\Users\ionut\OneDrive\Desktop\licenta\Experiment COD\stimuli\oddball\standard_checkerboard.jpg,1.0,2.0,,,1,Unicorn Hybrid Black,8,250,L/R mastoids,"Fz,C3,Cz,C4,Pz,PO7,Oz,PO8","PO7,Oz,PO8",Pz,Pz
A003,oddball,oddball,181,standard,neutral_task,C:\Users\ionut\OneDrive\Desktop\licenta\Experiment COD\stimuli\oddball\standard_checkerboard.jpg,1.0,2.0,,,1,Unicorn Hybrid Black,8,250,L/R mastoids,"Fz,C3,Cz,C4,Pz,PO7,Oz,PO8","PO7,Oz,PO8",Pz,Pz
A003,oddball,oddball,182,standard,neutral_task,C:\Users\ionut\OneDrive\Desktop\licenta\Experiment COD\stimuli\oddball\standard_checkerboard.jpg,1.0,2.0,,,1,Unicorn Hybrid Black,8,250,L/R mastoids,"Fz,C3,Cz,C4,Pz,PO7,Oz,PO8","PO7,Oz,PO8",Pz,Pz
A003,oddball,oddball,183,standard,neutral_task,C:\Users\ionut\OneDrive\Desktop\licenta\Experiment COD\stimuli\oddball\standard_checkerboard.jpg,1.0,2.0,,,1,Unicorn Hybrid Black,8,250,L/R mastoids,"Fz,C3,Cz,C4,Pz,PO7,Oz,PO8","PO7,Oz,PO8",Pz,Pz
A003,oddball,oddball,184,target,neutral_task,C:\Users\ionut\OneDrive\Desktop\licenta\Experiment COD\stimuli\oddball\target_checkerboard.jpg,1.0,2.0,space,0.4303330999973696,1,Unicorn Hybrid Black,8,250,L/R mastoids,"Fz,C3,Cz,C4,Pz,PO7,Oz,PO8","PO7,Oz,PO8",Pz,Pz
A003,oddball,oddball,185,target,neutral_task,C:\Users\ionut\OneDrive\Desktop\licenta\Experiment COD\stimuli\oddball\target_checkerboard.jpg,1.0,2.0,space,0.5281604000192601,1,Unicorn Hybrid Black,8,250,L/R mastoids,"Fz,C3,Cz,C4,Pz,PO7,Oz,PO8","PO7,Oz,PO8",Pz,Pz
A003,oddball,oddball,186,standard,neutral_task,C:\Users\ionut\OneDrive\Desktop\licenta\Experiment COD\stimuli\oddball\standard_checkerboard.jpg,1.0,2.0,,,1,Unicorn Hybrid Black,8,250,L/R mastoids,"Fz,C3,Cz,C4,Pz,PO7,Oz,PO8","PO7,Oz,PO8",Pz,Pz
A003,oddball,oddball,187,standard,neutral_task,C:\Users\ionut\OneDrive\Desktop\licenta\Experiment COD\stimuli\oddball\standard_checkerboard.jpg,1.0,2.0,,,1,Unicorn Hybrid Black,8,250,L/R mastoids,"Fz,C3,Cz,C4,Pz,PO7,Oz,PO8","PO7,Oz,PO8",Pz,Pz
A003,oddball,oddball,188,standard,neutral_task,C:\Users\ionut\OneDrive\Desktop\licenta\Experiment COD\stimuli\oddball\standard_checkerboard.jpg,1.0,2.0,,,1,Unicorn Hybrid Black,8,250,L/R mastoids,"Fz,C3,Cz,C4,Pz,PO7,Oz,PO8","PO7,Oz,PO8",Pz,Pz
A003,oddball,oddball,189,standard,neutral_task,C:\Users\ionut\OneDrive\Desktop\licenta\Experiment COD\stimuli\oddball\standard_checkerboard.jpg,1.0,2.0,,,1,Unicorn Hybrid Black,8,250,L/R mastoids,"Fz,C3,Cz,C4,Pz,PO7,Oz,PO8","PO7,Oz,PO8",Pz,Pz
A003,oddball,oddball,190,target,neutral_task,C:\Users\ionut\OneDrive\Desktop\licenta\Experiment COD\stimuli\oddball\target_checkerboard.jpg,1.0,2.0,space,0.49399860002449714,1,Unicorn Hybrid Black,8,250,L/R mastoids,"Fz,C3,Cz,C4,Pz,PO7,Oz,PO8","PO7,Oz,PO8",Pz,Pz
A003,oddball,oddball,191,standard,neutral_task,C:\Users\ionut\OneDrive\Desktop\licenta\Experiment COD\stimuli\oddball\standard_checkerboard.jpg,1.0,2.0,,,1,Unicorn Hybrid Black,8,250,L/R mastoids,"Fz,C3,Cz,C4,Pz,PO7,Oz,PO8","PO7,Oz,PO8",Pz,Pz
A003,oddball,oddball,192,standard,neutral_task,C:\Users\ionut\OneDrive\Desktop\licenta\Experiment COD\stimuli\oddball\standard_checkerboard.jpg,1.0,2.0,,,1,Unicorn Hybrid Black,8,250,L/R mastoids,"Fz,C3,Cz,C4,Pz,PO7,Oz,PO8","PO7,Oz,PO8",Pz,Pz
A003,oddball,oddball,193,standard,neutral_task,C:\Users\ionut\OneDrive\Desktop\licenta\Experiment COD\stimuli\oddball\standard_checkerboard.jpg,1.0,2.0,,,1,Unicorn Hybrid Black,8,250,L/R mastoids,"Fz,C3,Cz,C4,Pz,PO7,Oz,PO8","PO7,Oz,PO8",Pz,Pz
A003,oddball,oddball,194,target,neutral_task,C:\Users\ionut\OneDrive\Desktop\licenta\Experiment COD\stimuli\oddball\target_checkerboard.jpg,1.0,2.0,space,0.4781379999767523,1,Unicorn Hybrid Black,8,250,L/R mastoids,"Fz,C3,Cz,C4,Pz,PO7,Oz,PO8","PO7,Oz,PO8",Pz,Pz
A003,oddball,oddball,195,target,neutral_task,C:\Users\ionut\OneDrive\Desktop\licenta\Experiment COD\stimuli\oddball\target_checkerboard.jpg,1.0,2.0,space,0.4449033999990206,1,Unicorn Hybrid Black,8,250,L/R mastoids,"Fz,C3,Cz,C4,Pz,PO7,Oz,PO8","PO7,Oz,PO8",Pz,Pz
A003,oddball,oddball,196,standard,neutral_task,C:\Users\ionut\OneDrive\Desktop\licenta\Experiment COD\stimuli\oddball\standard_checkerboard.jpg,1.0,2.0,,,1,Unicorn Hybrid Black,8,250,L/R mastoids,"Fz,C3,Cz,C4,Pz,PO7,Oz,PO8","PO7,Oz,PO8",Pz,Pz
A003,oddball,oddball,197,target,neutral_task,C:\Users\ionut\OneDrive\Desktop\licenta\Experiment COD\stimuli\oddball\target_checkerboard.jpg,1.0,2.0,space,0.4438168000197038,1,Unicorn Hybrid Black,8,250,L/R mastoids,"Fz,C3,Cz,C4,Pz,PO7,Oz,PO8","PO7,Oz,PO8",Pz,Pz
A003,oddball,oddball,198,target,neutral_task,C:\Users\ionut\OneDrive\Desktop\licenta\Experiment COD\stimuli\oddball\target_checkerboard.jpg,1.0,2.0,space,0.4624904000083916,1,Unicorn Hybrid Black,8,250,L/R mastoids,"Fz,C3,Cz,C4,Pz,PO7,Oz,PO8","PO7,Oz,PO8",Pz,Pz
A003,oddball,oddball,199,standard,neutral_task,C:\Users\ionut\OneDrive\Desktop\licenta\Experiment COD\stimuli\oddball\standard_checkerboard.jpg,1.0,2.0,,,1,Unicorn Hybrid Black,8,250,L/R mastoids,"Fz,C3,Cz,C4,Pz,PO7,Oz,PO8","PO7,Oz,PO8",Pz,Pz
A003,oddball,oddball,200,standard,neutral_task,C:\Users\ionut\OneDrive\Desktop\licenta\Experiment COD\stimuli\oddball\standard_checkerboard.jpg,1.0,2.0,,,1,Unicorn Hybrid Black,8,250,L/R mastoids,"Fz,C3,Cz,C4,Pz,PO7,Oz,PO8","PO7,Oz,PO8",Pz,Pz
A003,lpp_viewing,lpp,1,view,positive,stimuli/positive/pos_014.jpg,2.0,0.5,,,,Unicorn Hybrid Black,8,250,L/R mastoids,"Fz,C3,Cz,C4,Pz,PO7,Oz,PO8","PO7,Oz,PO8",Pz,Pz
A003,lpp_viewing,lpp,2,view,negative,stimuli/negative/neg_015.jpg,2.0,0.5,,,,Unicorn Hybrid Black,8,250,L/R mastoids,"Fz,C3,Cz,C4,Pz,PO7,Oz,PO8","PO7,Oz,PO8",Pz,Pz
A003,lpp_viewing,lpp,3,view,positive,stimuli/positive/pos_030.jpg,2.0,0.5,,,,Unicorn Hybrid Black,8,250,L/R mastoids,"Fz,C3,Cz,C4,Pz,PO7,Oz,PO8","PO7,Oz,PO8",Pz,Pz
A003,lpp_viewing,lpp,4,view,neutral,stimuli/neutral/neu_011.jpg,2.0,0.5,,,,Unicorn Hybrid Black,8,250,L/R mastoids,"Fz,C3,Cz,C4,Pz,PO7,Oz,PO8","PO7,Oz,PO8",Pz,Pz
A003,lpp_viewing,lpp,5,view,negative,stimuli/negative/neg_030.jpg,2.0,0.5,,,,Unicorn Hybrid Black,8,250,L/R mastoids,"Fz,C3,Cz,C4,Pz,PO7,Oz,PO8","PO7,Oz,PO8",Pz,Pz
A003,lpp_viewing,lpp,6,view,positive,stimuli/positive/pos_026.jpg,2.0,0.5,,,,Unicorn Hybrid Black,8,250,L/R mastoids,"Fz,C3,Cz,C4,Pz,PO7,Oz,PO8","PO7,Oz,PO8",Pz,Pz
A003,lpp_viewing,lpp,7,view,negative,stimuli/negative/neg_029.jpg,2.0,0.5,,,,Unicorn Hybrid Black,8,250,L/R mastoids,"Fz,C3,Cz,C4,Pz,PO7,Oz,PO8","PO7,Oz,PO8",Pz,Pz
A003,lpp_viewing,lpp,8,view,negative,stimuli/negative/neg_012.jpg,2.0,0.5,,,,Unicorn Hybrid Black,8,250,L/R mastoids,"Fz,C3,Cz,C4,Pz,PO7,Oz,PO8","PO7,Oz,PO8",Pz,Pz
A003,lpp_viewing,lpp,9,view,neutral,stimuli/neutral/neu_005.jpg,2.0,0.5,,,,Unicorn Hybrid Black,8,250,L/R mastoids,"Fz,C3,Cz,C4,Pz,PO7,Oz,PO8","PO7,Oz,PO8",Pz,Pz
A003,lpp_viewing,lpp,10,view,positive,stimuli/positive/pos_009.jpg,2.0,0.5,,,,Unicorn Hybrid Black,8,250,L/R mastoids,"Fz,C3,Cz,C4,Pz,PO7,Oz,PO8","PO7,Oz,PO8",Pz,Pz
A003,lpp_viewing,lpp,11,view,negative,stimuli/negative/neg_006.jpg,2.0,0.5,,,,Unicorn Hybrid Black,8,250,L/R mastoids,"Fz,C3,Cz,C4,Pz,PO7,Oz,PO8","PO7,Oz,PO8",Pz,Pz
A003,lpp_viewing,lpp,12,view,neutral,stimuli/neutral/neu_009.jpg,2.0,0.5,,,,Unicorn Hybrid Black,8,250,L/R mastoids,"Fz,C3,Cz,C4,Pz,PO7,Oz,PO8","PO7,Oz,PO8",Pz,Pz
A003,lpp_viewing,lpp,13,view,positive,stimuli/positive/pos_008.jpg,2.0,0.5,,,,Unicorn Hybrid Black,8,250,L/R mastoids,"Fz,C3,Cz,C4,Pz,PO7,Oz,PO8","PO7,Oz,PO8",Pz,Pz
A003,lpp_viewing,lpp,14,view,neutral,stimuli/neutral/neu_024.jpg,2.0,0.5,,,,Unicorn Hybrid Black,8,250,L/R mastoids,"Fz,C3,Cz,C4,Pz,PO7,Oz,PO8","PO7,Oz,PO8",Pz,Pz
A003,lpp_viewing,lpp,15,view,negative,stimuli/negative/neg_009.jpg,2.0,0.5,,,,Unicorn Hybrid Black,8,250,L/R mastoids,"Fz,C3,Cz,C4,Pz,PO7,Oz,PO8","PO7,Oz,PO8",Pz,Pz
A003,lpp_viewing,lpp,16,view,positive,stimuli/positive/pos_007.jpg,2.0,0.5,,,,Unicorn Hybrid Black,8,250,L/R mastoids,"Fz,C3,Cz,C4,Pz,PO7,Oz,PO8","PO7,Oz,PO8",Pz,Pz
A003,lpp_viewing,lpp,17,view,positive,stimuli/positive/pos_016.jpg,2.0,0.5,,,,Unicorn Hybrid Black,8,250,L/R mastoids,"Fz,C3,Cz,C4,Pz,PO7,Oz,PO8","PO7,Oz,PO8",Pz,Pz
A003,lpp_viewing,lpp,18,view,negative,stimuli/negative/neg_010.jpg,2.0,0.5,,,,Unicorn Hybrid Black,8,250,L/R mastoids,"Fz,C3,Cz,C4,Pz,PO7,Oz,PO8","PO7,Oz,PO8",Pz,Pz
A003,lpp_viewing,lpp,19,view,negative,stimuli/negative/neg_013.jpg,2.0,0.5,,,,Unicorn Hybrid Black,8,250,L/R mastoids,"Fz,C3,Cz,C4,Pz,PO7,Oz,PO8","PO7,Oz,PO8",Pz,Pz
A003,lpp_viewing,lpp,20,view,neutral,stimuli/neutral/neu_007.jpg,2.0,0.5,,,,Unicorn Hybrid Black,8,250,L/R mastoids,"Fz,C3,Cz,C4,Pz,PO7,Oz,PO8","PO7,Oz,PO8",Pz,Pz
A003,lpp_viewing,lpp,21,view,negative,stimuli/negative/neg_021.jpg,2.0,0.5,,,,Unicorn Hybrid Black,8,250,L/R mastoids,"Fz,C3,Cz,C4,Pz,PO7,Oz,PO8","PO7,Oz,PO8",Pz,Pz
A003,lpp_viewing,lpp,22,view,negative,stimuli/negative/neg_018.jpg,2.0,0.5,,,,Unicorn Hybrid Black,8,250,L/R mastoids,"Fz,C3,Cz,C4,Pz,PO7,Oz,PO8","PO7,Oz,PO8",Pz,Pz
A003,lpp_viewing,lpp,23,view,positive,stimuli/positive/pos_025.jpg,2.0,0.5,,,,Unicorn Hybrid Black,8,250,L/R mastoids,"Fz,C3,Cz,C4,Pz,PO7,Oz,PO8","PO7,Oz,PO8",Pz,Pz
A003,lpp_viewing,lpp,24,view,positive,stimuli/positive/pos_019.jpg,2.0,0.5,,,,Unicorn Hybrid Black,8,250,L/R mastoids,"Fz,C3,Cz,C4,Pz,PO7,Oz,PO8","PO7,Oz,PO8",Pz,Pz
A003,lpp_viewing,lpp,25,view,positive,stimuli/positive/pos_001.jpg,2.0,0.5,,,,Unicorn Hybrid Black,8,250,L/R mastoids,"Fz,C3,Cz,C4,Pz,PO7,Oz,PO8","PO7,Oz,PO8",Pz,Pz
A003,lpp_viewing,lpp,26,view,neutral,stimuli/neutral/neu_008.jpg,2.0,0.5,,,,Unicorn Hybrid Black,8,250,L/R mastoids,"Fz,C3,Cz,C4,Pz,PO7,Oz,PO8","PO7,Oz,PO8",Pz,Pz
A003,lpp_viewing,lpp,27,view,negative,stimuli/negative/neg_027.jpg,2.0,0.5,,,,Unicorn Hybrid Black,8,250,L/R mastoids,"Fz,C3,Cz,C4,Pz,PO7,Oz,PO8","PO7,Oz,PO8",Pz,Pz
A003,lpp_viewing,lpp,28,view,neutral,stimuli/neutral/neu_026.jpg,2.0,0.5,,,,Unicorn Hybrid Black,8,250,L/R mastoids,"Fz,C3,Cz,C4,Pz,PO7,Oz,PO8","PO7,Oz,PO8",Pz,Pz
A003,lpp_viewing,lpp,29,view,positive,stimuli/positive/pos_011.jpg,2.0,0.5,,,,Unicorn Hybrid Black,8,250,L/R mastoids,"Fz,C3,Cz,C4,Pz,PO7,Oz,PO8","PO7,Oz,PO8",Pz,Pz
A003,lpp_viewing,lpp,30,view,neutral,stimuli/neutral/neu_019.jpg,2.0,0.5,,,,Unicorn Hybrid Black,8,250,L/R mastoids,"Fz,C3,Cz,C4,Pz,PO7,Oz,PO8","PO7,Oz,PO8",Pz,Pz
A003,lpp_viewing,lpp,31,view,negative,stimuli/negative/neg_004.jpg,2.0,0.5,,,,Unicorn Hybrid Black,8,250,L/R mastoids,"Fz,C3,Cz,C4,Pz,PO7,Oz,PO8","PO7,Oz,PO8",Pz,Pz
A003,lpp_viewing,lpp,32,view,neutral,stimuli/neutral/neu_018.jpg,2.0,0.5,,,,Unicorn Hybrid Black,8,250,L/R mastoids,"Fz,C3,Cz,C4,Pz,PO7,Oz,PO8","PO7,Oz,PO8",Pz,Pz
A003,lpp_viewing,lpp,33,view,negative,stimuli/negative/neg_016.jpg,2.0,0.5,,,,Unicorn Hybrid Black,8,250,L/R mastoids,"Fz,C3,Cz,C4,Pz,PO7,Oz,PO8","PO7,Oz,PO8",Pz,Pz
A003,lpp_viewing,lpp,34,view,positive,stimuli/positive/pos_023.jpg,2.0,0.5,,,,Unicorn Hybrid Black,8,250,L/R mastoids,"Fz,C3,Cz,C4,Pz,PO7,Oz,PO8","PO7,Oz,PO8",Pz,Pz
A003,lpp_viewing,lpp,35,view,positive,stimuli/positive/pos_003.jpg,2.0,0.5,,,,Unicorn Hybrid Black,8,250,L/R mastoids,"Fz,C3,Cz,C4,Pz,PO7,Oz,PO8","PO7,Oz,PO8",Pz,Pz
A003,lpp_viewing,lpp,36,view,neutral,stimuli/neutral/neu_021.jpg,2.0,0.5,,,,Unicorn Hybrid Black,8,250,L/R mastoids,"Fz,C3,Cz,C4,Pz,PO7,Oz,PO8","PO7,Oz,PO8",Pz,Pz
A003,lpp_viewing,lpp,37,view,negative,stimuli/negative/neg_011.jpg,2.0,0.5,,,,Unicorn Hybrid Black,8,250,L/R mastoids,"Fz,C3,Cz,C4,Pz,PO7,Oz,PO8","PO7,Oz,PO8",Pz,Pz
A003,lpp_viewing,lpp,38,view,positive,stimuli/positive/pos_010.jpg,2.0,0.5,,,,Unicorn Hybrid Black,8,250,L/R mastoids,"Fz,C3,Cz,C4,Pz,PO7,Oz,PO8","PO7,Oz,PO8",Pz,Pz
A003,lpp_viewing,lpp,39,view,neutral,stimuli/neutral/neu_006.jpg,2.0,0.5,,,,Unicorn Hybrid Black,8,250,L/R mastoids,"Fz,C3,Cz,C4,Pz,PO7,Oz,PO8","PO7,Oz,PO8",Pz,Pz
A003,lpp_viewing,lpp,40,view,neutral,stimuli/neutral/neu_017.jpg,2.0,0.5,,,,Unicorn Hybrid Black,8,250,L/R mastoids,"Fz,C3,Cz,C4,Pz,PO7,Oz,PO8","PO7,Oz,PO8",Pz,Pz
A003,lpp_viewing,lpp,41,view,positive,stimuli/positive/pos_013.jpg,2.0,0.5,,,,Unicorn Hybrid Black,8,250,L/R mastoids,"Fz,C3,Cz,C4,Pz,PO7,Oz,PO8","PO7,Oz,PO8",Pz,Pz
A003,lpp_viewing,lpp,42,view,negative,stimuli/negative/neg_024.jpg,2.0,0.5,,,,Unicorn Hybrid Black,8,250,L/R mastoids,"Fz,C3,Cz,C4,Pz,PO7,Oz,PO8","PO7,Oz,PO8",Pz,Pz
A003,lpp_viewing,lpp,43,view,neutral,stimuli/neutral/neu_004.jpg,2.0,0.5,,,,Unicorn Hybrid Black,8,250,L/R mastoids,"Fz,C3,Cz,C4,Pz,PO7,Oz,PO8","PO7,Oz,PO8",Pz,Pz
A003,lpp_viewing,lpp,44,view,positive,stimuli/positive/pos_015.jpg,2.0,0.5,,,,Unicorn Hybrid Black,8,250,L/R mastoids,"Fz,C3,Cz,C4,Pz,PO7,Oz,PO8","PO7,Oz,PO8",Pz,Pz
A003,lpp_viewing,lpp,45,view,negative,stimuli/negative/neg_019.jpg,2.0,0.5,,,,Unicorn Hybrid Black,8,250,L/R mastoids,"Fz,C3,Cz,C4,Pz,PO7,Oz,PO8","PO7,Oz,PO8",Pz,Pz
A003,lpp_viewing,lpp,46,view,negative,stimuli/negative/neg_003.jpg,2.0,0.5,,,,Unicorn Hybrid Black,8,250,L/R mastoids,"Fz,C3,Cz,C4,Pz,PO7,Oz,PO8","PO7,Oz,PO8",Pz,Pz
A003,lpp_viewing,lpp,47,view,positive,stimuli/positive/pos_021.jpg,2.0,0.5,,,,Unicorn Hybrid Black,8,250,L/R mastoids,"Fz,C3,Cz,C4,Pz,PO7,Oz,PO8","PO7,Oz,PO8",Pz,Pz
A003,lpp_viewing,lpp,48,view,positive,stimuli/positive/pos_022.jpg,2.0,0.5,,,,Unicorn Hybrid Black,8,250,L/R mastoids,"Fz,C3,Cz,C4,Pz,PO7,Oz,PO8","PO7,Oz,PO8",Pz,Pz
A003,lpp_viewing,lpp,49,view,neutral,stimuli/neutral/neu_001.jpg,2.0,0.5,,,,Unicorn Hybrid Black,8,250,L/R mastoids,"Fz,C3,Cz,C4,Pz,PO7,Oz,PO8","PO7,Oz,PO8",Pz,Pz
A003,lpp_viewing,lpp,50,view,negative,stimuli/negative/neg_022.jpg,2.0,0.5,,,,Unicorn Hybrid Black,8,250,L/R mastoids,"Fz,C3,Cz,C4,Pz,PO7,Oz,PO8","PO7,Oz,PO8",Pz,Pz
A003,lpp_viewing,lpp,51,view,neutral,stimuli/neutral/neu_015.jpg,2.0,0.5,,,,Unicorn Hybrid Black,8,250,L/R mastoids,"Fz,C3,Cz,C4,Pz,PO7,Oz,PO8","PO7,Oz,PO8",Pz,Pz
A003,lpp_viewing,lpp,52,view,neutral,stimuli/neutral/neu_029.jpg,2.0,0.5,,,,Unicorn Hybrid Black,8,250,L/R mastoids,"Fz,C3,Cz,C4,Pz,PO7,Oz,PO8","PO7,Oz,PO8",Pz,Pz
A003,lpp_viewing,lpp,53,view,positive,stimuli/positive/pos_004.jpg,2.0,0.5,,,,Unicorn Hybrid Black,8,250,L/R mastoids,"Fz,C3,Cz,C4,Pz,PO7,Oz,PO8","PO7,Oz,PO8",Pz,Pz
A003,lpp_viewing,lpp,54,view,neutral,stimuli/neutral/neu_023.jpg,2.0,0.5,,,,Unicorn Hybrid Black,8,250,L/R mastoids,"Fz,C3,Cz,C4,Pz,PO7,Oz,PO8","PO7,Oz,PO8",Pz,Pz
A003,lpp_viewing,lpp,55,view,positive,stimuli/positive/pos_018.jpg,2.0,0.5,,,,Unicorn Hybrid Black,8,250,L/R mastoids,"Fz,C3,Cz,C4,Pz,PO7,Oz,PO8","PO7,Oz,PO8",Pz,Pz
A003,lpp_viewing,lpp,56,view,positive,stimuli/positive/pos_017.jpg,2.0,0.5,,,,Unicorn Hybrid Black,8,250,L/R mastoids,"Fz,C3,Cz,C4,Pz,PO7,Oz,PO8","PO7,Oz,PO8",Pz,Pz
A003,lpp_viewing,lpp,57,view,negative,stimuli/negative/neg_007.jpg,2.0,0.5,,,,Unicorn Hybrid Black,8,250,L/R mastoids,"Fz,C3,Cz,C4,Pz,PO7,Oz,PO8","PO7,Oz,PO8",Pz,Pz
A003,lpp_viewing,lpp,58,view,negative,stimuli/negative/neg_002.jpg,2.0,0.5,,,,Unicorn Hybrid Black,8,250,L/R mastoids,"Fz,C3,Cz,C4,Pz,PO7,Oz,PO8","PO7,Oz,PO8",Pz,Pz
A003,lpp_viewing,lpp,59,view,positive,stimuli/positive/pos_006.jpg,2.0,0.5,,,,Unicorn Hybrid Black,8,250,L/R mastoids,"Fz,C3,Cz,C4,Pz,PO7,Oz,PO8","PO7,Oz,PO8",Pz,Pz
A003,lpp_viewing,lpp,60,view,neutral,stimuli/neutral/neu_010.jpg,2.0,0.5,,,,Unicorn Hybrid Black,8,250,L/R mastoids,"Fz,C3,Cz,C4,Pz,PO7,Oz,PO8","PO7,Oz,PO8",Pz,Pz
A003,lpp_viewing,lpp,61,view,negative,stimuli/negative/neg_025.jpg,2.0,0.5,,,,Unicorn Hybrid Black,8,250,L/R mastoids,"Fz,C3,Cz,C4,Pz,PO7,Oz,PO8","PO7,Oz,PO8",Pz,Pz
A003,lpp_viewing,lpp,62,view,negative,stimuli/negative/neg_026.jpg,2.0,0.5,,,,Unicorn Hybrid Black,8,250,L/R mastoids,"Fz,C3,Cz,C4,Pz,PO7,Oz,PO8","PO7,Oz,PO8",Pz,Pz
A003,lpp_viewing,lpp,63,view,positive,stimuli/positive/pos_005.jpg,2.0,0.5,,,,Unicorn Hybrid Black,8,250,L/R mastoids,"Fz,C3,Cz,C4,Pz,PO7,Oz,PO8","PO7,Oz,PO8",Pz,Pz
A003,lpp_viewing,lpp,64,view,positive,stimuli/positive/pos_020.jpg,2.0,0.5,,,,Unicorn Hybrid Black,8,250,L/R mastoids,"Fz,C3,Cz,C4,Pz,PO7,Oz,PO8","PO7,Oz,PO8",Pz,Pz
A003,lpp_viewing,lpp,65,view,positive,stimuli/positive/pos_024.jpg,2.0,0.5,,,,Unicorn Hybrid Black,8,250,L/R mastoids,"Fz,C3,Cz,C4,Pz,PO7,Oz,PO8","PO7,Oz,PO8",Pz,Pz
A003,lpp_viewing,lpp,66,view,negative,stimuli/negative/neg_005.jpg,2.0,0.5,,,,Unicorn Hybrid Black,8,250,L/R mastoids,"Fz,C3,Cz,C4,Pz,PO7,Oz,PO8","PO7,Oz,PO8",Pz,Pz
A003,lpp_viewing,lpp,67,view,neutral,stimuli/neutral/neu_002.jpg,2.0,0.5,,,,Unicorn Hybrid Black,8,250,L/R mastoids,"Fz,C3,Cz,C4,Pz,PO7,Oz,PO8","PO7,Oz,PO8",Pz,Pz
A003,lpp_viewing,lpp,68,view,negative,stimuli/negative/neg_020.jpg,2.0,0.5,,,,Unicorn Hybrid Black,8,250,L/R mastoids,"Fz,C3,Cz,C4,Pz,PO7,Oz,PO8","PO7,Oz,PO8",Pz,Pz
A003,lpp_viewing,lpp,69,view,neutral,stimuli/neutral/neu_030.jpg,2.0,0.5,,,,Unicorn Hybrid Black,8,250,L/R mastoids,"Fz,C3,Cz,C4,Pz,PO7,Oz,PO8","PO7,Oz,PO8",Pz,Pz
A003,lpp_viewing,lpp,70,view,neutral,stimuli/neutral/neu_022.jpg,2.0,0.5,,,,Unicorn Hybrid Black,8,250,L/R mastoids,"Fz,C3,Cz,C4,Pz,PO7,Oz,PO8","PO7,Oz,PO8",Pz,Pz
A003,lpp_viewing,lpp,71,view,neutral,stimuli/neutral/neu_020.jpg,2.0,0.5,,,,Unicorn Hybrid Black,8,250,L/R mastoids,"Fz,C3,Cz,C4,Pz,PO7,Oz,PO8","PO7,Oz,PO8",Pz,Pz
A003,lpp_viewing,lpp,72,view,negative,stimuli/negative/neg_001.jpg,2.0,0.5,,,,Unicorn Hybrid Black,8,250,L/R mastoids,"Fz,C3,Cz,C4,Pz,PO7,Oz,PO8","PO7,Oz,PO8",Pz,Pz
A003,lpp_viewing,lpp,73,view,positive,stimuli/positive/pos_028.jpg,2.0,0.5,,,,Unicorn Hybrid Black,8,250,L/R mastoids,"Fz,C3,Cz,C4,Pz,PO7,Oz,PO8","PO7,Oz,PO8",Pz,Pz
A003,lpp_viewing,lpp,74,view,neutral,stimuli/neutral/neu_012.jpg,2.0,0.5,,,,Unicorn Hybrid Black,8,250,L/R mastoids,"Fz,C3,Cz,C4,Pz,PO7,Oz,PO8","PO7,Oz,PO8",Pz,Pz
A003,lpp_viewing,lpp,75,view,negative,stimuli/negative/neg_028.jpg,2.0,0.5,,,,Unicorn Hybrid Black,8,250,L/R mastoids,"Fz,C3,Cz,C4,Pz,PO7,Oz,PO8","PO7,Oz,PO8",Pz,Pz
A003,lpp_viewing,lpp,76,view,positive,stimuli/positive/pos_029.jpg,2.0,0.5,,,,Unicorn Hybrid Black,8,250,L/R mastoids,"Fz,C3,Cz,C4,Pz,PO7,Oz,PO8","PO7,Oz,PO8",Pz,Pz
A003,lpp_viewing,lpp,77,view,neutral,stimuli/neutral/neu_028.jpg,2.0,0.5,,,,Unicorn Hybrid Black,8,250,L/R mastoids,"Fz,C3,Cz,C4,Pz,PO7,Oz,PO8","PO7,Oz,PO8",Pz,Pz
A003,lpp_viewing,lpp,78,view,negative,stimuli/negative/neg_023.jpg,2.0,0.5,,,,Unicorn Hybrid Black,8,250,L/R mastoids,"Fz,C3,Cz,C4,Pz,PO7,Oz,PO8","PO7,Oz,PO8",Pz,Pz
A003,lpp_viewing,lpp,79,view,negative,stimuli/negative/neg_014.jpg,2.0,0.5,,,,Unicorn Hybrid Black,8,250,L/R mastoids,"Fz,C3,Cz,C4,Pz,PO7,Oz,PO8","PO7,Oz,PO8",Pz,Pz
A003,lpp_viewing,lpp,80,view,neutral,stimuli/neutral/neu_003.jpg,2.0,0.5,,,,Unicorn Hybrid Black,8,250,L/R mastoids,"Fz,C3,Cz,C4,Pz,PO7,Oz,PO8","PO7,Oz,PO8",Pz,Pz
A003,lpp_viewing,lpp,81,view,neutral,stimuli/neutral/neu_016.jpg,2.0,0.5,,,,Unicorn Hybrid Black,8,250,L/R mastoids,"Fz,C3,Cz,C4,Pz,PO7,Oz,PO8","PO7,Oz,PO8",Pz,Pz
A003,lpp_viewing,lpp,82,view,negative,stimuli/negative/neg_008.jpg,2.0,0.5,,,,Unicorn Hybrid Black,8,250,L/R mastoids,"Fz,C3,Cz,C4,Pz,PO7,Oz,PO8","PO7,Oz,PO8",Pz,Pz
A003,lpp_viewing,lpp,83,view,neutral,stimuli/neutral/neu_027.jpg,2.0,0.5,,,,Unicorn Hybrid Black,8,250,L/R mastoids,"Fz,C3,Cz,C4,Pz,PO7,Oz,PO8","PO7,Oz,PO8",Pz,Pz
A003,lpp_viewing,lpp,84,view,neutral,stimuli/neutral/neu_014.jpg,2.0,0.5,,,,Unicorn Hybrid Black,8,250,L/R mastoids,"Fz,C3,Cz,C4,Pz,PO7,Oz,PO8","PO7,Oz,PO8",Pz,Pz
A003,lpp_viewing,lpp,85,view,negative,stimuli/negative/neg_017.jpg,2.0,0.5,,,,Unicorn Hybrid Black,8,250,L/R mastoids,"Fz,C3,Cz,C4,Pz,PO7,Oz,PO8","PO7,Oz,PO8",Pz,Pz
A003,lpp_viewing,lpp,86,view,positive,stimuli/positive/pos_002.jpg,2.0,0.5,,,,Unicorn Hybrid Black,8,250,L/R mastoids,"Fz,C3,Cz,C4,Pz,PO7,Oz,PO8","PO7,Oz,PO8",Pz,Pz
A003,lpp_viewing,lpp,87,view,positive,stimuli/positive/pos_012.jpg,2.0,0.5,,,,Unicorn Hybrid Black,8,250,L/R mastoids,"Fz,C3,Cz,C4,Pz,PO7,Oz,PO8","PO7,Oz,PO8",Pz,Pz
A003,lpp_viewing,lpp,88,view,positive,stimuli/positive/pos_027.jpg,2.0,0.5,,,,Unicorn Hybrid Black,8,250,L/R mastoids,"Fz,C3,Cz,C4,Pz,PO7,Oz,PO8","PO7,Oz,PO8",Pz,Pz
A003,lpp_viewing,lpp,89,view,neutral,stimuli/neutral/neu_025.jpg,2.0,0.5,,,,Unicorn Hybrid Black,8,250,L/R mastoids,"Fz,C3,Cz,C4,Pz,PO7,Oz,PO8","PO7,Oz,PO8",Pz,Pz
A003,lpp_viewing,lpp,90,view,neutral,stimuli/neutral/neu_013.jpg,2.0,0.5,,,,Unicorn Hybrid Black,8,250,L/R mastoids,"Fz,C3,Cz,C4,Pz,PO7,Oz,PO8","PO7,Oz,PO8",Pz,Pz
